Timestamp,Accel X,Accel Y,Accel Z,Gyro X,Gyro Y,Gyro Z,Magneto X,Magneto Y,Magneto Z
1745333372.4631984,-1.00711,0.109739,-0.024766,-0.00244,-0.002928,0.004514,0.22858813212510962,-0.16924875767319497,-0.080239695995323
1745333372.4680073,-1.020774,0.110654,-0.024399999999999998,-0.002623,-0.0034159999999999998,0.0046359999999999995,0.22858813212510962,-0.16924875767319497,-0.080239695995323
1745333372.4728775,-1.021994,0.106811,-0.023119,-0.0021349999999999997,-0.002928,0.0048189999999999995,0.2318035662087109,-0.17275650394621456,-0.083162817889506
1745333372.4777622,-1.011685,0.108092,-0.027267,-0.00183,-0.001281,0.0044529999999999995,0.2318035662087109,-0.17275650394621456,-0.083162817889506
1745333372.482613,-1.006561,0.108885,-0.026657,-0.002074,-0.002257,0.004697,0.2318035662087109,-0.17275650394621456,-0.083162817889506
1745333372.4874945,-1.008574,0.108336,-0.02501,-0.0023179999999999997,-0.002257,0.004514,0.2318035662087109,-0.17275650394621456,-0.083162817889506
1745333372.4924943,-1.014857,0.108275,-0.023972999999999998,-0.0023179999999999997,-0.002196,0.00488,0.2318035662087109,-0.17275650394621456,-0.083162817889506
1745333372.4974134,-1.015101,0.110959,-0.02623,-0.0018909999999999999,-0.001647,0.0050019999999999995,0.2318035662087109,-0.17275650394621456,-0.083162817889506
1745333372.5022213,-1.013576,0.109373,-0.027694,-0.0018909999999999999,-0.001952,0.004575,0.2318035662087109,-0.17275650394621456,-0.083162817889506
1745333372.5071151,-1.01382,0.108336,-0.027877,-0.001952,-0.0028669999999999998,0.003904,0.2318035662087109,-0.17275650394621456,-0.083162817889506
1745333372.5119545,-1.017358,0.108763,-0.024095,-0.0021349999999999997,-0.003721,0.0040869999999999995,0.2318035662087109,-0.17275650394621456,-0.083162817889506
1745333372.5168447,-1.011014,0.107482,-0.025436999999999998,-0.001769,-0.002379,0.003904,0.2318035662087109,-0.17275650394621456,-0.083162817889506
1745333372.5218976,-1.007049,0.106872,-0.02379,-0.002379,-0.002257,0.004514,0.2318035662087109,-0.17275650394621456,-0.083162817889506
1745333372.5283568,-1.017358,0.108275,-0.026474,-0.0017079999999999999,-0.002013,0.004758,0.2318035662087109,-0.17275650394621456,-0.083162817889506
1745333372.5330427,-1.020835,0.108824,-0.025681,-0.001769,-0.0023179999999999997,0.004941,0.2318035662087109,-0.17275650394621456,-0.083162817889506
1745333372.537904,-1.013515,0.108519,-0.025559,-0.0018909999999999999,-0.001952,0.004331,0.2318035662087109,-0.17275650394621456,-0.083162817889506
1745333372.5427666,-1.005097,0.10797,-0.02562,-0.002074,-0.001647,0.004026,0.2318035662087109,-0.17275650394621456,-0.083162817889506
1745333372.5476308,-1.012966,0.108519,-0.025559,-0.001952,-0.0034159999999999998,0.004209,0.2318035662087109,-0.17275650394621456,-0.083162817889506
1745333372.5525014,-1.016382,0.109068,-0.025315,-0.001952,-0.002562,0.004575,0.2318035662087109,-0.17275650394621456,-0.083162817889506
1745333372.557509,-1.0126,0.108458,-0.024461,-0.002013,-0.001769,0.005063,0.2318035662087109,-0.17275650394621456,-0.083162817889506
1745333372.5623283,-1.011075,0.109129,-0.027206,-0.002196,-0.0011589999999999999,0.0051849999999999995,0.2318035662087109,-0.17275650394621456,-0.083162817889506
1745333372.5671415,-1.015162,0.109556,-0.027694,-0.002074,-0.0021349999999999997,0.004758,0.2318035662087109,-0.17275650394621456,-0.083162817889506
1745333372.5720057,-1.014247,0.10900699999999999,-0.023972999999999998,-0.002074,-0.0021349999999999997,0.004209,0.2318035662087109,-0.17275650394621456,-0.083162817889506
1745333372.5768685,-1.011136,0.10992199999999999,-0.026413,-0.002196,-0.0023179999999999997,0.00488,0.2297573808827828,-0.17509500146156096,-0.07965507161648641
1745333372.5817358,-1.00772,0.110593,-0.027145,-0.001952,-0.0021349999999999997,0.004697,0.2297573808827828,-0.17509500146156096,-0.07965507161648641
1745333372.5866468,-1.012722,0.110593,-0.025436999999999998,-0.00183,-0.0034159999999999998,0.0046359999999999995,0.2297573808827828,-0.17509500146156096,-0.07965507161648641
1745333372.5916317,-1.018761,0.108824,-0.024704999999999998,-0.0018909999999999999,-0.0026839999999999998,0.0044529999999999995,0.2297573808827828,-0.17509500146156096,-0.07965507161648641
1745333372.5963879,-1.012234,0.108092,-0.02562,-0.001647,-0.002257,0.0044529999999999995,0.2297573808827828,-0.17509500146156096,-0.07965507161648641
1745333372.601261,-1.010465,0.11083699999999999,-0.025498,-0.002257,-0.0023179999999999997,0.0044529999999999995,0.2297573808827828,-0.17509500146156096,-0.07965507161648641
1745333372.6061308,-1.012905,0.108214,-0.026900999999999998,-0.001952,-0.0025009999999999998,0.004575,0.2297573808827828,-0.17509500146156096,-0.07965507161648641
1745333372.611022,-1.016565,0.108763,-0.024704999999999998,-0.002257,-0.002013,0.004941,0.2297573808827828,-0.17509500146156096,-0.07965507161648641
1745333372.6158674,-1.01565,0.10931199999999999,-0.023241,-0.001952,-0.001586,0.005063,0.2297573808827828,-0.17509500146156096,-0.07965507161648641
1745333372.6209815,-1.009367,0.109983,-0.027755,-0.002013,-0.0017079999999999999,0.004514,0.2297573808827828,-0.17509500146156096,-0.07965507161648641
1745333372.6256528,-1.013637,0.10858,-0.026962,-0.002013,-0.002806,0.004026,0.2297573808827828,-0.17509500146156096,-0.07965507161648641
1745333372.6305115,-1.014369,0.108397,-0.023363,-0.00183,-0.003172,0.004331,0.2297573808827828,-0.17509500146156096,-0.07965507161648641
1745333372.6353755,-1.013759,0.108336,-0.026779,-0.0018909999999999999,-0.002196,0.004697,0.2297573808827828,-0.17509500146156096,-0.07965507161648641
1745333372.6402328,-1.014735,0.110044,-0.025131999999999998,-0.002013,-0.00244,0.004941,0.2297573808827828,-0.17509500146156096,-0.07965507161648641
1745333372.6450973,-1.014369,0.11053199999999999,-0.024704999999999998,-0.0021349999999999997,-0.002074,0.0044529999999999995,0.2297573808827828,-0.17509500146156096,-0.07965507161648641
1745333372.6500583,-1.012844,0.10931199999999999,-0.026779,-0.00183,-0.0015249999999999999,0.004697,0.2297573808827828,-0.17509500146156096,-0.07965507161648641
1745333372.654986,-1.011441,0.109678,-0.026595999999999998,-0.00183,-0.0017079999999999999,0.004575,0.2297573808827828,-0.17509500146156096,-0.07965507161648641
1745333372.6597586,-1.012844,0.10961699999999999,-0.02623,-0.00183,-0.002806,0.0042699999999999995,0.2297573808827828,-0.17509500146156096,-0.07965507161648641
1745333372.6646216,-1.011197,0.107848,-0.02562,-0.002379,-0.002806,0.004758,0.2297573808827828,-0.17509500146156096,-0.07965507161648641
1745333372.6694973,-1.014613,0.108519,-0.025131999999999998,-0.0021349999999999997,-0.002806,0.004392,0.2297573808827828,-0.17509500146156096,-0.07965507161648641
1745333372.6743586,-1.015406,0.110349,-0.025315,-0.0023179999999999997,-0.0023179999999999997,0.004514,0.2297573808827828,-0.17509500146156096,-0.07965507161648641
1745333372.6792295,-1.014003,0.109068,-0.024339,-0.001952,-0.001952,0.00488,0.22771119555685473,-0.17304881613563286,-0.08213972522654195
1745333372.6843753,-1.016077,0.10900699999999999,-0.026474,-0.0021349999999999997,-0.001952,0.0042699999999999995,0.22771119555685473,-0.17304881613563286,-0.08213972522654195
1745333372.6890197,-1.009672,0.10736,-0.026962,-0.0018909999999999999,-0.002196,0.0046359999999999995,0.22771119555685473,-0.17304881613563286,-0.08213972522654195
1745333372.6938887,-1.014125,0.110593,-0.026291,-0.002074,-0.0028669999999999998,0.004575,0.22771119555685473,-0.17304881613563286,-0.08213972522654195
1745333372.6987958,-1.013637,0.109068,-0.025193,-0.00183,-0.00183,0.0042699999999999995,0.22771119555685473,-0.17304881613563286,-0.08213972522654195
1745333372.7036254,-1.012478,0.123891,-0.027084,-0.001952,-0.002379,0.005124,0.22771119555685473,-0.17304881613563286,-0.08213972522654195
1745333372.7084863,-1.0301069999999999,0.10900699999999999,-0.025071,-0.0017079999999999999,-0.002562,0.004758,0.22771119555685473,-0.17304881613563286,-0.08213972522654195
1745333372.713436,-1.010282,0.10900699999999999,-0.024095,-0.001586,-0.0021349999999999997,0.004331,0.22771119555685473,-0.17304881613563286,-0.08213972522654195
1745333372.7183664,-1.012112,0.108641,-0.025315,-0.002074,-0.002196,0.004514,0.22771119555685473,-0.17304881613563286,-0.08213972522654195
1745333372.7231338,-1.010892,0.110288,-0.024644,-0.002196,-0.002074,0.0042699999999999995,0.22771119555685473,-0.17304881613563286,-0.08213972522654195
1745333372.7279983,-1.013088,0.110715,-0.026595999999999998,-0.002074,-0.002257,0.0048189999999999995,0.22771119555685473,-0.17304881613563286,-0.08213972522654195
1745333372.732868,-1.016504,0.11022699999999999,-0.023302,-0.00183,-0.00244,0.0048189999999999995,0.22771119555685473,-0.17304881613563286,-0.08213972522654195
1745333372.7377396,-1.01321,0.109251,-0.023363,-0.002013,-0.0023179999999999997,0.0044529999999999995,0.22771119555685473,-0.17304881613563286,-0.08213972522654195
1745333372.7426314,-1.015162,0.11114199999999999,-0.027755,-0.0025009999999999998,-0.002806,0.0046359999999999995,0.22771119555685473,-0.17304881613563286,-0.08213972522654195
1745333372.7477906,-1.010648,0.10790899999999999,-0.024399999999999998,-0.002196,-0.002745,0.0044529999999999995,0.22771119555685473,-0.17304881613563286,-0.08213972522654195
1745333372.7523909,-1.010526,0.108763,-0.025376,-0.002196,-0.002013,0.004758,0.22771119555685473,-0.17304881613563286,-0.08213972522654195
1745333372.757262,-1.014552,0.10729899999999999,-0.024766,-0.00183,-0.002806,0.0050019999999999995,0.22771119555685473,-0.17304881613563286,-0.08213972522654195
1745333372.762133,-1.011868,0.108885,-0.025376,-0.002623,-0.002379,0.004392,0.22771119555685473,-0.17304881613563286,-0.08213972522654195
1745333372.7670023,-1.014857,0.108946,-0.026535,-0.0021349999999999997,-0.002196,0.004697,0.22771119555685473,-0.17304881613563286,-0.08213972522654195
1745333372.771858,-1.015833,0.108641,-0.024278,-0.0021349999999999997,-0.0021349999999999997,0.004514,0.22771119555685473,-0.17304881613563286,-0.08213972522654195
1745333372.7769182,-1.009977,0.109068,-0.025131999999999998,-0.0021349999999999997,-0.0018909999999999999,0.004514,0.22771119555685473,-0.17304881613563286,-0.08213972522654195
1745333372.7817073,-1.013698,0.10797,-0.025315,-0.0021349999999999997,-0.002379,0.004697,0.23531131248173048,-0.17421806489330605,-0.08725518854136217
1745333372.7865005,-1.011502,0.108458,-0.022631,-0.002074,-0.0028669999999999998,0.0046359999999999995,0.23531131248173048,-0.17421806489330605,-0.08725518854136217
1745333372.7913625,-1.009794,0.108397,-0.026168999999999998,-0.0018909999999999999,-0.001586,0.004758,0.23531131248173048,-0.17421806489330605,-0.08725518854136217
1745333372.7962286,-1.018578,0.10992199999999999,-0.026168999999999998,-0.001952,-0.0025009999999999998,0.004941,0.23531131248173048,-0.17421806489330605,-0.08725518854136217
1745333372.8011112,-1.012783,0.107726,-0.024583,-0.0018909999999999999,-0.002806,0.004331,0.23531131248173048,-0.17421806489330605,-0.08725518854136217
1745333372.8060105,-1.013393,0.107787,-0.026535,-0.0021349999999999997,-0.0023179999999999997,0.004758,0.23531131248173048,-0.17421806489330605,-0.08725518854136217
1745333372.8110852,-1.013027,0.108458,-0.024704999999999998,-0.0017079999999999999,-0.002074,0.0050019999999999995,0.23531131248173048,-0.17421806489330605,-0.08725518854136217
1745333372.8157814,-1.011014,0.109251,-0.025315,-0.002196,-0.0018909999999999999,0.0044529999999999995,0.23531131248173048,-0.17421806489330605,-0.08725518854136217
1745333372.820648,-1.015345,0.108763,-0.025376,-0.002196,-0.0026839999999999998,0.004697,0.23531131248173048,-0.17421806489330605,-0.08725518854136217
1745333372.8255088,-1.015162,0.108763,-0.025803,-0.001769,-0.002196,0.0046359999999999995,0.23531131248173048,-0.17421806489330605,-0.08725518854136217
1745333372.8303766,-1.01077,0.10797,-0.027023,-0.002196,-0.002196,0.0042699999999999995,0.23531131248173048,-0.17421806489330605,-0.08725518854136217
1745333372.835253,-1.016016,0.10900699999999999,-0.028121,-0.002196,-0.0028669999999999998,0.004392,0.23531131248173048,-0.17421806489330605,-0.08725518854136217
1745333372.8403492,-1.014674,0.10919,-0.024949,-0.0021349999999999997,-0.002257,0.0042699999999999995,0.23531131248173048,-0.17421806489330605,-0.08725518854136217
1745333372.8450427,-1.010648,0.108946,-0.024461,-0.002257,-0.0018909999999999999,0.004697,0.23531131248173048,-0.17421806489330605,-0.08725518854136217
1745333372.8498898,-1.014735,0.108031,-0.025986,-0.002074,-0.002745,0.0044529999999999995,0.23531131248173048,-0.17421806489330605,-0.08725518854136217
1745333372.8547628,-1.01199,0.108641,-0.025193,-0.002074,-0.00183,0.0048189999999999995,0.23531131248173048,-0.17421806489330605,-0.08725518854136217
1745333372.859629,-1.01504,0.11022699999999999,-0.024888,-0.002013,-0.00183,0.004392,0.23531131248173048,-0.17421806489330605,-0.08725518854136217
1745333372.8644874,-1.010465,0.108763,-0.024095,-0.0017079999999999999,-0.002379,0.0044529999999999995,0.23531131248173048,-0.17421806489330605,-0.08725518854136217
1745333372.8694465,-1.010831,0.110349,-0.022692,-0.0018909999999999999,-0.002379,0.0050019999999999995,0.23531131248173048,-0.17421806489330605,-0.08725518854136217
1745333372.8744032,-1.012051,0.109983,-0.023485,-0.0018909999999999999,-0.0023179999999999997,0.00488,0.23531131248173048,-0.17421806489330605,-0.08725518854136217
1745333372.8791437,-1.013698,0.109495,-0.024704999999999998,-0.002196,-0.002379,0.00488,0.23531131248173048,-0.17421806489330605,-0.08725518854136217
1745333372.8840098,-1.014552,0.108824,-0.027267,-0.002074,-0.002196,0.0046359999999999995,0.2356036246711488,-0.16135632855890092,-0.0808243203741596
1745333372.8888736,-1.016565,0.10900699999999999,-0.026718,-0.002196,-0.002196,0.004575,0.2356036246711488,-0.16135632855890092,-0.0808243203741596
1745333372.8937397,-1.013088,0.107421,-0.024156,-0.002013,-0.00244,0.004514,0.2356036246711488,-0.16135632855890092,-0.0808243203741596
1745333372.8986347,-1.0126,0.108763,-0.02623,-0.0018909999999999999,-0.0025009999999999998,0.0044529999999999995,0.2356036246711488,-0.16135632855890092,-0.0808243203741596
1745333372.903711,-1.014979,0.108336,-0.027694,-0.00183,-0.002806,0.004392,0.2356036246711488,-0.16135632855890092,-0.0808243203741596
1745333372.9083982,-1.013393,0.108397,-0.026108,-0.0015249999999999999,-0.0025009999999999998,0.004209,0.2356036246711488,-0.16135632855890092,-0.0808243203741596
1745333372.9134476,-1.013881,0.10668899999999999,-0.026168999999999998,-0.002196,-0.002196,0.004697,0.2356036246711488,-0.16135632855890092,-0.0808243203741596
1745333372.9182088,-1.014003,0.107787,-0.027816,-0.0023179999999999997,-0.002379,0.004331,0.2356036246711488,-0.16135632855890092,-0.0808243203741596
1745333372.923038,-1.014735,0.107482,-0.027267,-0.002379,-0.002257,0.004575,0.2356036246711488,-0.16135632855890092,-0.0808243203741596
1745333372.927901,-1.013149,0.108946,-0.025863999999999998,-0.0023179999999999997,-0.002074,0.0044529999999999995,0.2356036246711488,-0.16135632855890092,-0.0808243203741596
1745333372.9348173,-1.014552,0.10900699999999999,-0.025803,-0.002074,-0.00244,0.004392,0.2356036246711488,-0.16135632855890092,-0.0808243203741596
1745333372.9393053,-1.011441,0.109861,-0.02501,-0.002074,-0.002074,0.004575,0.2356036246711488,-0.16135632855890092,-0.0808243203741596
1745333372.94416,-1.013759,0.10919,-0.026352,-0.001952,-0.0026839999999999998,0.004575,0.2356036246711488,-0.16135632855890092,-0.0808243203741596
1745333372.9490256,-1.013088,0.108824,-0.025071,-0.002379,-0.0025009999999999998,0.0044529999999999995,0.2356036246711488,-0.16135632855890092,-0.0808243203741596
1745333372.9538975,-1.012417,0.110654,-0.025131999999999998,-0.002196,-0.0021349999999999997,0.004575,0.2356036246711488,-0.16135632855890092,-0.0808243203741596
1745333372.958761,-1.014857,0.10900699999999999,-0.025559,-0.002257,-0.002257,0.004575,0.2356036246711488,-0.16135632855890092,-0.0808243203741596
1745333372.9637737,-1.011746,0.108702,-0.026962,-0.001952,-0.0023179999999999997,0.004697,0.2356036246711488,-0.16135632855890092,-0.0808243203741596
1745333372.9685988,-1.013149,0.11022699999999999,-0.025559,-0.0018909999999999999,-0.002074,0.005307,0.2356036246711488,-0.16135632855890092,-0.0808243203741596
1745333372.9734075,-1.012722,0.108702,-0.024827,-0.001769,-0.002379,0.00488,0.2356036246711488,-0.16135632855890092,-0.0808243203741596
1745333372.978271,-1.012722,0.110166,-0.02501,-0.0018909999999999999,-0.0023179999999999997,0.004575,0.2356036246711488,-0.16135632855890092,-0.0808243203741596
1745333372.9831429,-1.012966,0.10919,-0.025925,-0.0018909999999999999,-0.0021349999999999997,0.004514,0.23852674656533177,-0.1666179479684303,-0.07877813504823152
1745333372.9880066,-1.012539,0.107177,-0.023729,-0.001769,-0.0023179999999999997,0.004514,0.23852674656533177,-0.1666179479684303,-0.07877813504823152
1745333372.9929113,-1.012295,0.108824,-0.024339,-0.001769,-0.002745,0.005063,0.23852674656533177,-0.1666179479684303,-0.07877813504823152
1745333372.9979367,-1.01382,0.1098,-0.024827,-0.001769,-0.00183,0.004758,0.23852674656533177,-0.1666179479684303,-0.07877813504823152
1745333373.0026827,-1.015101,0.108458,-0.024399999999999998,-0.0017079999999999999,-0.002074,0.004697,0.23852674656533177,-0.1666179479684303,-0.07877813504823152
1745333373.0075598,-1.011868,0.108031,-0.026413,-0.002196,-0.0025009999999999998,0.004514,0.23852674656533177,-0.1666179479684303,-0.07877813504823152
1745333373.0130398,-1.012966,0.107787,-0.025498,-0.002013,-0.002196,0.004392,0.23852674656533177,-0.1666179479684303,-0.07877813504823152
1745333373.0179086,-1.010221,0.109434,-0.024217,-0.0018909999999999999,-0.0023179999999999997,0.0044529999999999995,0.23852674656533177,-0.1666179479684303,-0.07877813504823152
1745333373.0227916,-1.012417,0.10900699999999999,-0.027999,-0.002013,-0.002257,0.004575,0.23852674656533177,-0.1666179479684303,-0.07877813504823152
1745333373.0279517,-1.014308,0.109129,-0.024034,-0.0023179999999999997,-0.002074,0.004392,0.23852674656533177,-0.1666179479684303,-0.07877813504823152
1745333373.032556,-1.014796,0.10760399999999999,-0.025193,-0.0021349999999999997,-0.002196,0.004697,0.23852674656533177,-0.1666179479684303,-0.07877813504823152
1745333373.0374196,-1.013454,0.108153,-0.025681,-0.0018909999999999999,-0.0023179999999999997,0.004697,0.23852674656533177,-0.1666179479684303,-0.07877813504823152
1745333373.0422833,-1.012356,0.109678,-0.027023,-0.001952,-0.002379,0.0048189999999999995,0.23852674656533177,-0.1666179479684303,-0.07877813504823152
1745333373.0471506,-1.011868,0.109861,-0.024399999999999998,-0.002379,-0.002623,0.0044529999999999995,0.23852674656533177,-0.1666179479684303,-0.07877813504823152
1745333373.0520177,-1.013027,0.108885,-0.026413,-0.002257,-0.0025009999999999998,0.0046359999999999995,0.23852674656533177,-0.1666179479684303,-0.07877813504823152
1745333373.0570493,-1.013332,0.110288,-0.025498,-0.002379,-0.002257,0.0048189999999999995,0.23852674656533177,-0.1666179479684303,-0.07877813504823152
1745333373.0618455,-1.015101,0.108946,-0.027023,-0.002257,-0.0021349999999999997,0.0044529999999999995,0.23852674656533177,-0.1666179479684303,-0.07877813504823152
1745333373.066662,-1.014125,0.108397,-0.024888,-0.002013,-0.00244,0.004514,0.23852674656533177,-0.1666179479684303,-0.07877813504823152
1745333373.0715234,-1.01443,0.109373,-0.026718,-0.002196,-0.00244,0.004575,0.23852674656533177,-0.1666179479684303,-0.07877813504823152
1745333373.0763874,-1.012783,0.1098,-0.023363,-0.00183,-0.002257,0.0044529999999999995,0.23852674656533177,-0.1666179479684303,-0.07877813504823152
1745333373.0812542,-1.013149,0.10961699999999999,-0.024522,-0.0023179999999999997,-0.0023179999999999997,0.004331,0.23852674656533177,-0.1666179479684303,-0.07877813504823152
1745333373.0861716,-1.013149,0.108885,-0.023729,-0.0018909999999999999,-0.0023179999999999997,0.004697,0.23677287342882197,-0.16954106986261328,-0.08491669102601579
1745333373.0911608,-1.013027,0.108458,-0.025193,-0.0021349999999999997,-0.002562,0.005124,0.23677287342882197,-0.16954106986261328,-0.08491669102601579
1745333373.0958982,-1.014735,0.109373,-0.025436999999999998,-0.002379,-0.0023179999999999997,0.0040869999999999995,0.23677287342882197,-0.16954106986261328,-0.08491669102601579
1745333373.1007633,-1.0126,0.109434,-0.026595999999999998,-0.002257,-0.002257,0.004575,0.23677287342882197,-0.16954106986261328,-0.08491669102601579
1745333373.1056316,-1.011319,0.10992199999999999,-0.025315,-0.002196,-0.002623,0.0046359999999999995,0.23677287342882197,-0.16954106986261328,-0.08491669102601579
1745333373.1104946,-1.012478,0.109068,-0.027632999999999998,-0.002074,-0.0023179999999999997,0.004331,0.23677287342882197,-0.16954106986261328,-0.08491669102601579
1745333373.1153758,-1.014369,0.109861,-0.025863999999999998,-0.001952,-0.002257,0.0048189999999999995,0.23677287342882197,-0.16954106986261328,-0.08491669102601579
1745333373.120487,-1.013393,0.10931199999999999,-0.028853,-0.002013,-0.002196,0.004514,0.23677287342882197,-0.16954106986261328,-0.08491669102601579
1745333373.1251564,-1.011929,0.108519,-0.025803,-0.002074,-0.0018909999999999999,0.004575,0.23677287342882197,-0.16954106986261328,-0.08491669102601579
1745333373.130003,-1.012173,0.107116,-0.025436999999999998,-0.002074,-0.002074,0.0046359999999999995,0.23677287342882197,-0.16954106986261328,-0.08491669102601579
1745333373.1348698,-1.013393,0.109739,-0.024888,-0.002196,-0.002196,0.0046359999999999995,0.23677287342882197,-0.16954106986261328,-0.08491669102601579
1745333373.1397374,-1.014125,0.107543,-0.025986,-0.0021349999999999997,-0.0025009999999999998,0.0044529999999999995,0.23677287342882197,-0.16954106986261328,-0.08491669102601579
1745333373.1446006,-1.012356,0.108763,-0.024339,-0.0021349999999999997,-0.002257,0.0044529999999999995,0.23677287342882197,-0.16954106986261328,-0.08491669102601579
1745333373.1495636,-1.012905,0.109068,-0.026352,-0.0021349999999999997,-0.002257,0.0046359999999999995,0.23677287342882197,-0.16954106986261328,-0.08491669102601579
1745333373.154475,-1.013942,0.108458,-0.024034,-0.002257,-0.002379,0.004392,0.23677287342882197,-0.16954106986261328,-0.08491669102601579
1745333373.1592472,-1.013332,0.109068,-0.025559,-0.0021349999999999997,-0.002013,0.004209,0.23677287342882197,-0.16954106986261328,-0.08491669102601579
1745333373.164111,-1.012905,0.10797,-0.02684,-0.001952,-0.0023179999999999997,0.004941,0.23677287342882197,-0.16954106986261328,-0.08491669102601579
1745333373.1689892,-1.013027,0.108031,-0.025803,-0.00183,-0.002013,0.004331,0.23677287342882197,-0.16954106986261328,-0.08491669102601579
1745333373.17385,-1.014003,0.108763,-0.025071,-0.001769,-0.001952,0.004575,0.23677287342882197,-0.16954106986261328,-0.08491669102601579
1745333373.1787477,-1.012539,0.10919,-0.024949,-0.0017079999999999999,-0.0025009999999999998,0.004331,0.23677287342882197,-0.16954106986261328,-0.08491669102601579
1745333373.1838522,-1.014613,0.093757,-0.025863999999999998,-0.001769,-0.0023179999999999997,0.004331,0.23677287342882197,-0.16954106986261328,-0.08491669102601579
1745333373.1885111,-1.011929,0.108153,-0.027084,-0.0021349999999999997,-0.002623,0.0042699999999999995,0.2344343759134756,-0.16983338205203158,-0.0914937152879275
1745333373.1933672,-1.012722,0.108946,-0.025071,-0.001952,-0.002745,0.004758,0.2344343759134756,-0.16983338205203158,-0.0914937152879275
1745333373.1982315,-1.014125,0.110715,-0.026413,-0.0018909999999999999,-0.0025009999999999998,0.00488,0.2344343759134756,-0.16983338205203158,-0.0914937152879275
1745333373.2031124,-1.013271,0.108336,-0.024461,-0.002379,-0.0025009999999999998,0.004758,0.2344343759134756,-0.16983338205203158,-0.0914937152879275
1745333373.2079701,-1.010892,0.108214,-0.025131999999999998,-0.002257,-0.0021349999999999997,0.0048189999999999995,0.2344343759134756,-0.16983338205203158,-0.0914937152879275
1745333373.21301,-1.014064,0.108519,-0.026718,-0.002013,-0.0018909999999999999,0.004575,0.2344343759134756,-0.16983338205203158,-0.0914937152879275
1745333373.2177987,-1.014125,0.10961699999999999,-0.024217,-0.002013,-0.002257,0.004331,0.2344343759134756,-0.16983338205203158,-0.0914937152879275
1745333373.222608,-1.013942,0.109251,-0.028853,-0.001952,-0.002196,0.004514,0.2344343759134756,-0.16983338205203158,-0.0914937152879275
1745333373.2274687,-1.013088,0.110044,-0.026535,-0.00244,-0.0025009999999999998,0.0048189999999999995,0.2344343759134756,-0.16983338205203158,-0.0914937152879275
1745333373.232339,-1.014857,0.108214,-0.025193,-0.0023179999999999997,-0.002745,0.004758,0.2344343759134756,-0.16983338205203158,-0.0914937152879275
1745333373.2372274,-1.013149,0.10931199999999999,-0.025681,-0.0021349999999999997,-0.002379,0.0046359999999999995,0.2344343759134756,-0.16983338205203158,-0.0914937152879275
1745333373.242141,-1.012783,0.108702,-0.024399999999999998,-0.0021349999999999997,-0.002196,0.004697,0.2344343759134756,-0.16983338205203158,-0.0914937152879275
1745333373.2471876,-1.012539,0.109678,-0.024399999999999998,-0.002196,-0.002257,0.004697,0.2344343759134756,-0.16983338205203158,-0.0914937152879275
1745333373.251941,-1.01138,0.110654,-0.026108,-0.001769,-0.002379,0.004575,0.2344343759134756,-0.16983338205203158,-0.0914937152879275
1745333373.2567945,-1.01321,0.108824,-0.025254,-0.001952,-0.00244,0.0040869999999999995,0.2344343759134756,-0.16983338205203158,-0.0914937152879275
1745333373.2616606,-1.01321,0.109556,-0.026108,-0.002196,-0.0023179999999999997,0.004209,0.2344343759134756,-0.16983338205203158,-0.0914937152879275
1745333373.2665298,-1.011685,0.107787,-0.026474,-0.001952,-0.0025009999999999998,0.004514,0.2344343759134756,-0.16983338205203158,-0.0914937152879275
1745333373.2715197,-1.012905,0.108763,-0.026535,-0.002379,-0.002257,0.00488,0.2344343759134756,-0.16983338205203158,-0.0914937152879275
1745333373.2776191,-1.014186,0.108885,-0.025986,-0.002074,-0.0025009999999999998,0.004514,0.2344343759134756,-0.16983338205203158,-0.0914937152879275
1745333373.281197,-1.014064,0.108824,-0.026352,-0.002257,-0.0025009999999999998,0.0044529999999999995,0.2344343759134756,-0.16983338205203158,-0.0914937152879275
1745333373.286054,-1.013698,0.108885,-0.026108,-0.002074,-0.002745,0.0046359999999999995,0.2344343759134756,-0.16983338205203158,-0.0914937152879275
1745333373.290906,-1.013149,0.10900699999999999,-0.025863999999999998,-0.0017079999999999999,-0.001952,0.0044529999999999995,0.2332651271558024,-0.17889505992399882,-0.08491669102601579
1745333373.2957716,-1.012722,0.108519,-0.024583,-0.002379,-0.002623,0.004514,0.2332651271558024,-0.17889505992399882,-0.08491669102601579
1745333373.3006375,-1.011685,0.11041,-0.024278,-0.002013,-0.002379,0.0048189999999999995,0.2332651271558024,-0.17889505992399882,-0.08491669102601579
1745333373.3055942,-1.010892,0.108824,-0.024644,-0.002257,-0.002257,0.004514,0.2332651271558024,-0.17889505992399882,-0.08491669102601579
1745333373.3105342,-1.012966,0.10961699999999999,-0.026168999999999998,-0.001952,-0.002562,0.004514,0.2332651271558024,-0.17889505992399882,-0.08491669102601579
1745333373.3152957,-1.014064,0.11022699999999999,-0.026047,-0.001769,-0.002379,0.004514,0.2332651271558024,-0.17889505992399882,-0.08491669102601579
1745333373.3201683,-1.01199,0.109373,-0.025254,-0.002013,-0.003111,0.004697,0.2332651271558024,-0.17889505992399882,-0.08491669102601579
1745333373.3250268,-1.014003,0.108519,-0.026168999999999998,-0.002196,-0.00244,0.004148,0.2332651271558024,-0.17889505992399882,-0.08491669102601579
1745333373.329908,-1.012966,0.109373,-0.02257,-0.002196,-0.002623,0.004514,0.2332651271558024,-0.17889505992399882,-0.08491669102601579
1745333373.3348055,-1.011563,0.109251,-0.023667999999999998,-0.002379,-0.002196,0.004941,0.2332651271558024,-0.17889505992399882,-0.08491669102601579
1745333373.3400118,-1.013027,0.108214,-0.024278,-0.002013,-0.0021349999999999997,0.004697,0.2332651271558024,-0.17889505992399882,-0.08491669102601579
1745333373.3445528,-1.013637,0.109434,-0.026900999999999998,-0.002013,-0.002074,0.004758,0.2332651271558024,-0.17889505992399882,-0.08491669102601579
1745333373.3494124,-1.013881,0.10931199999999999,-0.025863999999999998,-0.002562,-0.00244,0.005246,0.2332651271558024,-0.17889505992399882,-0.08491669102601579
1745333373.3542829,-1.013759,0.10760399999999999,-0.025559,-0.0023179999999999997,-0.0025009999999999998,0.0046359999999999995,0.2332651271558024,-0.17889505992399882,-0.08491669102601579
1745333373.359147,-1.012173,0.108458,-0.024034,-0.002074,-0.0025009999999999998,0.0042699999999999995,0.2332651271558024,-0.17889505992399882,-0.08491669102601579
1745333373.3640132,-1.014186,0.108214,-0.025071,-0.002074,-0.0025009999999999998,0.004209,0.2332651271558024,-0.17889505992399882,-0.08491669102601579
1745333373.3690288,-1.013088,0.109068,-0.026168999999999998,-0.002379,-0.002013,0.0048189999999999995,0.2332651271558024,-0.17889505992399882,-0.08491669102601579
1745333373.3738346,-1.013027,0.109861,-0.025071,-0.002013,-0.002013,0.004575,0.2332651271558024,-0.17889505992399882,-0.08491669102601579
1745333373.3786488,-1.012356,0.108092,-0.026962,-0.0023179999999999997,-0.002196,0.004575,0.2332651271558024,-0.17889505992399882,-0.08491669102601579
1745333373.3835118,-1.015406,0.109739,-0.026474,-0.002074,-0.0025009999999999998,0.004392,0.2332651271558024,-0.17889505992399882,-0.08491669102601579
1745333373.3889759,-1.011929,0.109434,-0.025925,-0.002196,-0.002074,0.004514,0.2332651271558024,-0.17889505992399882,-0.08491669102601579
1745333373.393437,-1.013698,0.109068,-0.025498,-0.001586,-0.0023179999999999997,0.004575,0.2323881905875475,-0.18035662087109033,-0.08667056416252558
1745333373.3982942,-1.015589,0.10992199999999999,-0.025863999999999998,-0.0025009999999999998,-0.002196,0.0046359999999999995,0.2323881905875475,-0.18035662087109033,-0.08667056416252558
1745333373.4039588,-1.0126,0.10919,-0.025436999999999998,-0.002074,-0.002196,0.004514,0.2323881905875475,-0.18035662087109033,-0.08667056416252558
1745333373.4082093,-1.01748,0.109129,-0.026900999999999998,-0.002379,-0.002623,0.004575,0.2323881905875475,-0.18035662087109033,-0.08667056416252558
1745333373.4130583,-1.012844,0.108824,-0.024461,-0.0023179999999999997,-0.002257,0.004697,0.2323881905875475,-0.18035662087109033,-0.08667056416252558
1745333373.4179535,-1.011868,0.108031,-0.025986,-0.001769,-0.002196,0.004575,0.2323881905875475,-0.18035662087109033,-0.08667056416252558
1745333373.422789,-1.014003,0.109068,-0.026900999999999998,-0.002074,-0.0025009999999999998,0.00488,0.2323881905875475,-0.18035662087109033,-0.08667056416252558
1745333373.4276729,-1.014369,0.110654,-0.026108,-0.002013,-0.002562,0.004758,0.2323881905875475,-0.18035662087109033,-0.08667056416252558
1745333373.4327996,-1.013393,0.110593,-0.024522,-0.001952,-0.002562,0.004514,0.2323881905875475,-0.18035662087109033,-0.08667056416252558
1745333373.4374304,-1.014247,0.108275,-0.02745,-0.002013,-0.0021349999999999997,0.004941,0.2323881905875475,-0.18035662087109033,-0.08667056416252558
1745333373.4422936,-1.01321,0.108702,-0.025436999999999998,-0.002074,-0.0023179999999999997,0.0044529999999999995,0.2323881905875475,-0.18035662087109033,-0.08667056416252558
1745333373.4471576,-1.014125,0.108824,-0.024583,-0.0021349999999999997,-0.0023179999999999997,0.0042699999999999995,0.2323881905875475,-0.18035662087109033,-0.08667056416252558
1745333373.4520288,-1.013088,0.108458,-0.024766,-0.002074,-0.002196,0.0042699999999999995,0.2323881905875475,-0.18035662087109033,-0.08667056416252558
1745333373.4568965,-1.012295,0.109983,-0.024888,-0.0017079999999999999,-0.002257,0.004575,0.2323881905875475,-0.18035662087109033,-0.08667056416252558
1745333373.4619606,-1.014125,0.109678,-0.027877,-0.0018909999999999999,-0.0025009999999999998,0.004331,0.2323881905875475,-0.18035662087109033,-0.08667056416252558
1745333373.466735,-1.012844,0.107177,-0.02562,-0.002013,-0.0023179999999999997,0.004758,0.2323881905875475,-0.18035662087109033,-0.08667056416252558
1745333373.4715345,-1.012051,0.109495,-0.023058,-0.001769,-0.00244,0.004697,0.2323881905875475,-0.18035662087109033,-0.08667056416252558
1745333373.4763973,-1.012661,0.109983,-0.023363,-0.001769,-0.0023179999999999997,0.004331,0.2323881905875475,-0.18035662087109033,-0.08667056416252558
1745333373.4812655,-1.011868,0.108519,-0.024522,-0.001952,-0.002196,0.004758,0.2323881905875475,-0.18035662087109033,-0.08667056416252558
1745333373.4861395,-1.014125,0.109861,-0.024156,-0.001952,-0.002562,0.00488,0.2323881905875475,-0.18035662087109033,-0.08667056416252558
1745333373.4917793,-1.013698,0.11041,-0.023607,-0.00183,-0.002257,0.0050019999999999995,0.2323881905875475,-0.18035662087109033,-0.08667056416252558
1745333373.4962065,-1.013454,0.110471,-0.02623,-0.001769,-0.0023179999999999997,0.0048189999999999995,0.22858813212510962,-0.16749488453668518,-0.0799473838059047
1745333373.5007975,-1.013271,0.109251,-0.024888,-0.002013,-0.002257,0.0051849999999999995,0.22858813212510962,-0.16749488453668518,-0.0799473838059047
1745333373.50566,-1.012112,0.10900699999999999,-0.023912,-0.002013,-0.0023179999999999997,0.0046359999999999995,0.22858813212510962,-0.16749488453668518,-0.0799473838059047
1745333373.5105224,-1.012966,0.109983,-0.026108,-0.002257,-0.002562,0.0048189999999999995,0.22858813212510962,-0.16749488453668518,-0.0799473838059047
1745333373.5153897,-1.012905,0.109434,-0.023485,-0.0018909999999999999,-0.00244,0.00488,0.22858813212510962,-0.16749488453668518,-0.0799473838059047
1745333373.5202627,-1.012234,0.109739,-0.024583,-0.001952,-0.002013,0.004514,0.22858813212510962,-0.16749488453668518,-0.0799473838059047
1745333373.525408,-1.013454,0.110349,-0.025131999999999998,-0.0023179999999999997,-0.0025009999999999998,0.004941,0.22858813212510962,-0.16749488453668518,-0.0799473838059047
1745333373.5300446,-1.013637,0.109129,-0.024583,-0.002013,-0.002074,0.0046359999999999995,0.22858813212510962,-0.16749488453668518,-0.0799473838059047
1745333373.534896,-1.012051,0.109739,-0.026900999999999998,-0.00244,-0.002257,0.004941,0.22858813212510962,-0.16749488453668518,-0.0799473838059047
1745333373.539762,-1.013576,0.110044,-0.027145,-0.0021349999999999997,-0.002013,0.004392,0.22858813212510962,-0.16749488453668518,-0.0799473838059047
1745333373.5446243,-1.013942,0.109129,-0.02562,-0.00183,-0.002074,0.004331,0.22858813212510962,-0.16749488453668518,-0.0799473838059047
1745333373.549492,-1.011136,0.109861,-0.024704999999999998,-0.0017079999999999999,-0.002257,0.004514,0.22858813212510962,-0.16749488453668518,-0.0799473838059047
1745333373.5544565,-1.0126,0.108336,-0.025193,-0.002074,-0.002257,0.004514,0.22858813212510962,-0.16749488453668518,-0.0799473838059047
1745333373.5593815,-1.012905,0.109556,-0.023485,-0.0023179999999999997,-0.002013,0.004514,0.22858813212510962,-0.16749488453668518,-0.0799473838059047
1745333373.564147,-1.012112,0.10858,-0.026168999999999998,-0.0018909999999999999,-0.002074,0.004697,0.22858813212510962,-0.16749488453668518,-0.0799473838059047
1745333373.5690117,-1.012539,0.108885,-0.025131999999999998,-0.0017079999999999999,-0.002196,0.0048189999999999995,0.22858813212510962,-0.16749488453668518,-0.0799473838059047
1745333373.573878,-1.013149,0.10858,-0.027389,-0.002196,-0.002623,0.004514,0.22858813212510962,-0.16749488453668518,-0.0799473838059047
1745333373.5787446,-1.012051,0.107421,-0.026474,-0.0017079999999999999,-0.0023179999999999997,0.0046359999999999995,0.22858813212510962,-0.16749488453668518,-0.0799473838059047
1745333373.5836372,-1.011075,0.10931199999999999,-0.024522,-0.0017079999999999999,-0.002379,0.004392,0.22858813212510962,-0.16749488453668518,-0.0799473838059047
1745333373.5887384,-1.015223,0.11102,-0.025559,-0.002074,-0.002257,0.004331,0.22858813212510962,-0.16749488453668518,-0.0799473838059047
1745333373.5933998,-1.013881,0.108031,-0.025131999999999998,-0.0023179999999999997,-0.002074,0.0044529999999999995,0.22858813212510962,-0.16749488453668518,-0.0799473838059047
1745333373.5982566,-1.011075,0.110105,-0.025925,-0.002013,-0.002257,0.0046359999999999995,0.2297573808827828,-0.166325635779012,-0.07980122771119556
1745333373.60313,-1.012661,0.109373,-0.025742,-0.001586,-0.00244,0.004758,0.2297573808827828,-0.166325635779012,-0.07980122771119556
1745333373.607988,-1.012661,0.10858,-0.024522,-0.0021349999999999997,-0.002745,0.004514,0.2297573808827828,-0.166325635779012,-0.07980122771119556
1745333373.6128561,-1.014918,0.10900699999999999,-0.027389,-0.001769,-0.0023179999999999997,0.004575,0.2297573808827828,-0.166325635779012,-0.07980122771119556
1745333373.6178977,-1.011563,0.108824,-0.024461,-0.001952,-0.0023179999999999997,0.00488,0.2297573808827828,-0.166325635779012,-0.07980122771119556
1745333373.6226852,-1.012051,0.109495,-0.025863999999999998,-0.0025009999999999998,-0.002806,0.0046359999999999995,0.2297573808827828,-0.166325635779012,-0.07980122771119556
1745333373.6275,-1.012417,0.108763,-0.02562,-0.002013,-0.002074,0.0044529999999999995,0.2297573808827828,-0.166325635779012,-0.07980122771119556
1745333373.6323628,-1.01382,0.109129,-0.026168999999999998,-0.0023179999999999997,-0.00244,0.004758,0.2297573808827828,-0.166325635779012,-0.07980122771119556
1745333373.6372561,-1.01443,0.1098,-0.024339,-0.0018909999999999999,-0.002745,0.004575,0.2297573808827828,-0.166325635779012,-0.07980122771119556
1745333373.6421032,-1.013637,0.108641,-0.024461,-0.0021349999999999997,-0.00244,0.004575,0.2297573808827828,-0.166325635779012,-0.07980122771119556
1745333373.647035,-1.012661,0.109129,-0.022021,-0.002379,-0.00244,0.0044529999999999995,0.2297573808827828,-0.166325635779012,-0.07980122771119556
1745333373.6522512,-1.012417,0.109556,-0.024034,-0.0018909999999999999,-0.0026839999999999998,0.0048189999999999995,0.2297573808827828,-0.166325635779012,-0.07980122771119556
1745333373.6568632,-1.013698,0.10797,-0.02562,-0.002013,-0.0021349999999999997,0.00488,0.2297573808827828,-0.166325635779012,-0.07980122771119556
1745333373.6617227,-1.010709,0.109556,-0.025193,-0.002013,-0.002257,0.0046359999999999995,0.2297573808827828,-0.166325635779012,-0.07980122771119556
1745333373.666589,-1.013027,0.108946,-0.026900999999999998,-0.001647,-0.002745,0.00488,0.2297573808827828,-0.166325635779012,-0.07980122771119556
1745333373.6714656,-1.012478,0.10858,-0.026413,-0.002074,-0.0025009999999999998,0.004941,0.2297573808827828,-0.166325635779012,-0.07980122771119556
1745333373.6763322,-1.014613,0.10900699999999999,-0.025742,-0.0023179999999999997,-0.00244,0.0046359999999999995,0.2297573808827828,-0.166325635779012,-0.07980122771119556
1745333373.681501,-1.012844,0.108092,-0.025376,-0.002013,-0.00244,0.0044529999999999995,0.2297573808827828,-0.166325635779012,-0.07980122771119556
1745333373.6861303,-1.012234,0.11022699999999999,-0.026595999999999998,-0.002074,-0.0025009999999999998,0.004392,0.2297573808827828,-0.166325635779012,-0.07980122771119556
1745333373.6909714,-1.014674,0.109678,-0.025986,-0.002196,-0.002196,0.0046359999999999995,0.2297573808827828,-0.166325635779012,-0.07980122771119556
1745333373.6958303,-1.012478,0.108641,-0.026168999999999998,-0.002196,-0.0018909999999999999,0.004758,0.2297573808827828,-0.166325635779012,-0.07980122771119556
1745333373.7006984,-1.014064,0.108275,-0.027145,-0.002257,-0.002257,0.004392,0.23823443437591346,-0.1642794504530839,-0.08418591055247004
1745333373.7055717,-1.015528,0.10961699999999999,-0.026168999999999998,-0.001952,-0.002379,0.004697,0.23823443437591346,-0.1642794504530839,-0.08418591055247004
1745333373.7105389,-1.012234,0.108458,-0.026047,-0.001952,-0.002196,0.004392,0.23823443437591346,-0.1642794504530839,-0.08418591055247004
1745333373.715443,-1.015223,0.110959,-0.025986,-0.002074,-0.002257,0.004575,0.23823443437591346,-0.1642794504530839,-0.08418591055247004
1745333373.7202222,-1.012966,0.108946,-0.025863999999999998,-0.00183,-0.002623,0.004331,0.23823443437591346,-0.1642794504530839,-0.08418591055247004
1745333373.7250798,-1.012783,0.110105,-0.02623,-0.002196,-0.0025009999999999998,0.0044529999999999995,0.23823443437591346,-0.1642794504530839,-0.08418591055247004
1745333373.7299457,-1.01321,0.109678,-0.023607,-0.001952,-0.002257,0.0046359999999999995,0.23823443437591346,-0.1642794504530839,-0.08418591055247004
1745333373.7348135,-1.012295,0.108763,-0.024888,-0.002379,-0.002196,0.004575,0.23823443437591346,-0.1642794504530839,-0.08418591055247004
1745333373.739707,-1.010526,0.109739,-0.024644,-0.002013,-0.002257,0.004575,0.23823443437591346,-0.1642794504530839,-0.08418591055247004
1745333373.744785,-1.013332,0.109251,-0.024278,-0.0017079999999999999,-0.002196,0.0044529999999999995,0.23823443437591346,-0.1642794504530839,-0.08418591055247004
1745333373.749458,-1.012844,0.109129,-0.02379,-0.00183,-0.0025009999999999998,0.0048189999999999995,0.23823443437591346,-0.1642794504530839,-0.08418591055247004
1745333373.7543478,-1.012783,0.11022699999999999,-0.024888,-0.0018909999999999999,-0.00244,0.004697,0.23823443437591346,-0.1642794504530839,-0.08418591055247004
1745333373.7591915,-1.011685,0.10919,-0.025498,-0.0023179999999999997,-0.002806,0.0046359999999999995,0.23823443437591346,-0.1642794504530839,-0.08418591055247004
1745333373.7640543,-1.01321,0.110349,-0.024399999999999998,-0.002013,-0.002745,0.0048189999999999995,0.23823443437591346,-0.1642794504530839,-0.08418591055247004
1745333373.7689211,-1.012661,0.107848,-0.025559,-0.002074,-0.0023179999999999997,0.0048189999999999995,0.23823443437591346,-0.1642794504530839,-0.08418591055247004
1745333373.774011,-1.01138,0.10760399999999999,-0.024827,-0.001952,-0.0023179999999999997,0.004697,0.23823443437591346,-0.1642794504530839,-0.08418591055247004
1745333373.7787583,-1.016626,0.109983,-0.027816,-0.002074,-0.002379,0.004575,0.23823443437591346,-0.1642794504530839,-0.08418591055247004
1745333373.783562,-1.013149,0.10961699999999999,-0.026900999999999998,-0.0021349999999999997,-0.002257,0.004331,0.23823443437591346,-0.1642794504530839,-0.08418591055247004
1745333373.7884312,-1.01321,0.109739,-0.025498,-0.002196,-0.0023179999999999997,0.0048189999999999995,0.23823443437591346,-0.1642794504530839,-0.08418591055247004
1745333373.7932937,-1.011624,0.109129,-0.024766,-0.00183,-0.002562,0.004575,0.23823443437591346,-0.1642794504530839,-0.08418591055247004
1745333373.7981625,-1.013027,0.107787,-0.024217,-0.001952,-0.002196,0.00488,0.23823443437591346,-0.1642794504530839,-0.08418591055247004
1745333373.803074,-1.014064,0.108824,-0.026108,-0.002074,-0.002013,0.0048189999999999995,0.2323881905875475,-0.1628178895059924,-0.08038585209003216
1745333373.8080623,-1.015162,0.108092,-0.028182,-0.0021349999999999997,-0.002074,0.004514,0.2323881905875475,-0.1628178895059924,-0.08038585209003216
1745333373.8128178,-1.011746,0.108763,-0.025681,-0.0023179999999999997,-0.002196,0.004514,0.2323881905875475,-0.1628178895059924,-0.08038585209003216
1745333373.817681,-1.013454,0.108153,-0.026657,-0.002074,-0.002257,0.004697,0.2323881905875475,-0.1628178895059924,-0.08038585209003216
1745333373.8225515,-1.014552,0.109556,-0.02379,-0.0023179999999999997,-0.002379,0.00488,0.2323881905875475,-0.1628178895059924,-0.08038585209003216
1745333373.8274145,-1.011746,0.108824,-0.024949,-0.002196,-0.0023179999999999997,0.004758,0.2323881905875475,-0.1628178895059924,-0.08038585209003216
1745333373.8322873,-1.012539,0.10790899999999999,-0.027206,-0.002257,-0.0023179999999999997,0.004575,0.2323881905875475,-0.1628178895059924,-0.08038585209003216
1745333373.837422,-1.012966,0.109739,-0.024278,-0.0018909999999999999,-0.0021349999999999997,0.0044529999999999995,0.2323881905875475,-0.1628178895059924,-0.08038585209003216
1745333373.8420737,-1.012539,0.10992199999999999,-0.025315,-0.001952,-0.0021349999999999997,0.004514,0.2323881905875475,-0.1628178895059924,-0.08038585209003216
1745333373.8469212,-1.015589,0.108824,-0.025315,-0.0018909999999999999,-0.002623,0.004575,0.2323881905875475,-0.1628178895059924,-0.08038585209003216
1745333373.8517902,-1.012051,0.108824,-0.024461,-0.0023179999999999997,-0.0025009999999999998,0.004758,0.2323881905875475,-0.1628178895059924,-0.08038585209003216
1745333373.856658,-1.012173,0.108275,-0.024827,-0.002013,-0.002013,0.004575,0.2323881905875475,-0.1628178895059924,-0.08038585209003216
1745333373.8615217,-1.01321,0.10961699999999999,-0.025681,-0.0018909999999999999,-0.002257,0.0048189999999999995,0.2323881905875475,-0.1628178895059924,-0.08038585209003216
1745333373.8664787,-1.011929,0.109861,-0.024766,-0.0021349999999999997,-0.002562,0.004575,0.2323881905875475,-0.1628178895059924,-0.08038585209003216
1745333373.8713944,-1.013576,0.109739,-0.027084,-0.002074,-0.002745,0.004514,0.2323881905875475,-0.1628178895059924,-0.08038585209003216
1745333373.8761652,-1.011624,0.1098,-0.023729,-0.0018909999999999999,-0.0028669999999999998,0.004514,0.2323881905875475,-0.1628178895059924,-0.08038585209003216
1745333373.881028,-1.013881,0.109251,-0.025803,-0.002257,-0.002623,0.004392,0.2323881905875475,-0.1628178895059924,-0.08038585209003216
1745333373.885899,-1.016199,0.108336,-0.024399999999999998,-0.002196,-0.00244,0.0046359999999999995,0.2323881905875475,-0.1628178895059924,-0.08038585209003216
1745333373.8907664,-1.015101,0.108824,-0.02684,-0.00244,-0.0025009999999999998,0.004758,0.2323881905875475,-0.1628178895059924,-0.08038585209003216
1745333373.8956537,-1.014735,0.108885,-0.026779,-0.0023179999999999997,-0.002013,0.004392,0.2323881905875475,-0.1628178895059924,-0.08038585209003216
1745333373.900706,-1.013698,0.108641,-0.02379,-0.002379,-0.0025009999999999998,0.004697,0.2323881905875475,-0.1628178895059924,-0.08038585209003216
1745333373.9054043,-1.013332,0.109373,-0.025559,-0.00183,-0.002013,0.004514,0.22508038585209003,-0.1619409529377375,-0.07249342297573809
1745333373.9102614,-1.012722,0.109373,-0.025559,-0.002074,-0.0023179999999999997,0.004575,0.22508038585209003,-0.1619409529377375,-0.07249342297573809
1745333373.915129,-1.014308,0.108763,-0.026047,-0.002257,-0.002074,0.004392,0.22508038585209003,-0.1619409529377375,-0.07249342297573809
1745333373.920002,-1.014369,0.108824,-0.024278,-0.001952,-0.0021349999999999997,0.004575,0.22508038585209003,-0.1619409529377375,-0.07249342297573809
1745333373.924865,-1.012905,0.10900699999999999,-0.025315,-0.0021349999999999997,-0.002379,0.004331,0.22508038585209003,-0.1619409529377375,-0.07249342297573809
1745333373.9299202,-1.011014,0.109434,-0.024339,-0.001952,-0.0021349999999999997,0.004392,0.22508038585209003,-0.1619409529377375,-0.07249342297573809
1745333373.9346988,-1.012539,0.109068,-0.024827,-0.0023179999999999997,-0.0023179999999999997,0.004758,0.22508038585209003,-0.1619409529377375,-0.07249342297573809
1745333373.9394994,-1.012417,0.107421,-0.025498,-0.002013,-0.002806,0.0046359999999999995,0.22508038585209003,-0.1619409529377375,-0.07249342297573809
1745333373.9443612,-1.013027,0.108641,-0.024888,-0.002074,-0.00244,0.004575,0.22508038585209003,-0.1619409529377375,-0.07249342297573809
1745333373.9492278,-1.01077,0.107726,-0.025071,-0.002196,-0.00244,0.004209,0.22508038585209003,-0.1619409529377375,-0.07249342297573809
1745333373.9541361,-1.011929,0.108458,-0.025254,-0.001952,-0.00244,0.004697,0.22508038585209003,-0.1619409529377375,-0.07249342297573809
1745333373.9590354,-1.011624,0.1098,-0.023607,-0.002074,-0.001769,0.004575,0.22508038585209003,-0.1619409529377375,-0.07249342297573809
1745333373.9640815,-1.0126,0.1098,-0.02501,-0.00183,-0.0018909999999999999,0.004758,0.22508038585209003,-0.1619409529377375,-0.07249342297573809
1745333373.9688318,-1.013515,0.108336,-0.026962,-0.0021349999999999997,-0.0025009999999999998,0.004941,0.22508038585209003,-0.1619409529377375,-0.07249342297573809
1745333373.9736934,-1.014613,0.108214,-0.025925,-0.002013,-0.00244,0.004697,0.22508038585209003,-0.1619409529377375,-0.07249342297573809
1745333373.9785588,-1.012417,0.108031,-0.027023,-0.0017079999999999999,-0.0021349999999999997,0.004941,0.22508038585209003,-0.1619409529377375,-0.07249342297573809
1745333373.9834247,-1.011929,0.108031,-0.024461,-0.0018909999999999999,-0.002257,0.004941,0.22508038585209003,-0.1619409529377375,-0.07249342297573809
1745333373.988299,-1.013271,0.108397,-0.02623,-0.0023179999999999997,-0.002013,0.0042699999999999995,0.22508038585209003,-0.1619409529377375,-0.07249342297573809
1745333373.993415,-1.012905,0.10900699999999999,-0.024583,-0.001952,-0.00244,0.0046359999999999995,0.22508038585209003,-0.1619409529377375,-0.07249342297573809
1745333373.9980803,-1.012356,0.10900699999999999,-0.024034,-0.00244,-0.002623,0.004575,0.22508038585209003,-0.1619409529377375,-0.07249342297573809
1745333374.0029328,-1.013576,0.109373,-0.028182,-0.0018909999999999999,-0.00183,0.0042699999999999995,0.22508038585209003,-0.1619409529377375,-0.07249342297573809
1745333374.007798,-1.011929,0.108519,-0.026779,-0.002745,-0.002074,0.004697,0.24086524408067816,-0.16106401636948262,-0.07512423268050278
1745333374.0126653,-1.011014,0.110654,-0.022875,-0.0025009999999999998,-0.002379,0.004392,0.24086524408067816,-0.16106401636948262,-0.07512423268050278
1745333374.0175343,-1.014857,0.109068,-0.028304,-0.001952,-0.0025009999999999998,0.004514,0.24086524408067816,-0.16106401636948262,-0.07512423268050278
1745333374.022495,-1.013576,0.109373,-0.023363,-0.002074,-0.0023179999999999997,0.004392,0.24086524408067816,-0.16106401636948262,-0.07512423268050278
1745333374.0274217,-1.013454,0.108824,-0.02562,-0.0023179999999999997,-0.002562,0.004575,0.24086524408067816,-0.16106401636948262,-0.07512423268050278
1745333374.0321894,-1.013332,0.109129,-0.026474,-0.00244,-0.002074,0.0042699999999999995,0.24086524408067816,-0.16106401636948262,-0.07512423268050278
1745333374.037059,-1.014003,0.110593,-0.025315,-0.002379,-0.002257,0.0044529999999999995,0.24086524408067816,-0.16106401636948262,-0.07512423268050278
1745333374.041922,-1.012661,0.109129,-0.02562,-0.00183,-0.0021349999999999997,0.004575,0.24086524408067816,-0.16106401636948262,-0.07512423268050278
1745333374.0467968,-1.014918,0.10900699999999999,-0.026962,-0.002196,-0.0021349999999999997,0.004758,0.24086524408067816,-0.16106401636948262,-0.07512423268050278
1745333374.0516787,-1.01382,0.108824,-0.024583,-0.0023179999999999997,-0.001952,0.0050019999999999995,0.24086524408067816,-0.16106401636948262,-0.07512423268050278
1745333374.056819,-1.013698,0.108519,-0.027206,-0.0017079999999999999,-0.002196,0.0044529999999999995,0.24086524408067816,-0.16106401636948262,-0.07512423268050278
1745333374.0614352,-1.014857,0.109129,-0.025925,-0.002013,-0.002623,0.004575,0.24086524408067816,-0.16106401636948262,-0.07512423268050278
1745333374.0662935,-1.012539,0.108214,-0.025254,-0.002196,-0.0025009999999999998,0.0042699999999999995,0.24086524408067816,-0.16106401636948262,-0.07512423268050278
1745333374.0711687,-1.012295,0.108641,-0.025925,-0.002074,-0.002562,0.004331,0.24086524408067816,-0.16106401636948262,-0.07512423268050278
1745333374.0760298,-1.013759,0.110898,-0.024583,-0.0018909999999999999,-0.0025009999999999998,0.004758,0.24086524408067816,-0.16106401636948262,-0.07512423268050278
1745333374.0808966,-1.013027,0.10931199999999999,-0.026291,-0.002074,-0.002257,0.004697,0.24086524408067816,-0.16106401636948262,-0.07512423268050278
1745333374.0859392,-1.012356,0.109251,-0.02379,-0.0023179999999999997,-0.002562,0.004514,0.24086524408067816,-0.16106401636948262,-0.07512423268050278
1745333374.0907228,-1.011868,0.108824,-0.024339,-0.002074,-0.002074,0.004514,0.24086524408067816,-0.16106401636948262,-0.07512423268050278
1745333374.0955427,-1.012051,0.108763,-0.026900999999999998,-0.002013,-0.002074,0.004575,0.24086524408067816,-0.16106401636948262,-0.07512423268050278
1745333374.1003969,-1.011746,0.109068,-0.024644,-0.0023179999999999997,-0.00244,0.004514,0.24086524408067816,-0.16106401636948262,-0.07512423268050278
1745333374.1052713,-1.01321,0.110593,-0.024766,-0.002074,-0.0021349999999999997,0.00488,0.24086524408067816,-0.16106401636948262,-0.07512423268050278
1745333374.110135,-1.012783,0.107665,-0.024339,-0.0015249999999999999,-0.002196,0.0046359999999999995,0.22946506869336453,-0.17071031862028646,-0.07980122771119556
1745333374.115076,-1.013759,0.108214,-0.025925,-0.001647,-0.001952,0.004697,0.22946506869336453,-0.17071031862028646,-0.07980122771119556
1745333374.120032,-1.012905,0.108336,-0.027327999999999998,-0.0021349999999999997,-0.0018909999999999999,0.004697,0.22946506869336453,-0.17071031862028646,-0.07980122771119556
1745333374.1248004,-1.015223,0.109434,-0.025681,-0.001952,-0.002257,0.004331,0.22946506869336453,-0.17071031862028646,-0.07980122771119556
1745333374.1296601,-1.013881,0.109129,-0.026595999999999998,-0.002013,-0.0023179999999999997,0.0046359999999999995,0.22946506869336453,-0.17071031862028646,-0.07980122771119556
1745333374.134529,-1.015528,0.10919,-0.027389,-0.002074,-0.0025009999999999998,0.004392,0.22946506869336453,-0.17071031862028646,-0.07980122771119556
1745333374.1394017,-1.01382,0.109373,-0.027694,-0.002196,-0.002623,0.004697,0.22946506869336453,-0.17071031862028646,-0.07980122771119556
1745333374.1442719,-1.013698,0.108763,-0.024461,-0.0021349999999999997,-0.0026839999999999998,0.004758,0.22946506869336453,-0.17071031862028646,-0.07980122771119556
1745333374.1494641,-1.013637,0.107482,-0.023607,-0.002257,-0.0025009999999999998,0.0048189999999999995,0.22946506869336453,-0.17071031862028646,-0.07980122771119556
1745333374.1540463,-1.013515,0.107543,-0.025498,-0.002257,-0.00244,0.004575,0.22946506869336453,-0.17071031862028646,-0.07980122771119556
1745333374.1588938,-1.013637,0.11022699999999999,-0.024278,-0.0023179999999999997,-0.0021349999999999997,0.004331,0.22946506869336453,-0.17071031862028646,-0.07980122771119556
1745333374.1637583,-1.011502,0.109129,-0.02623,-0.0021349999999999997,-0.002074,0.0044529999999999995,0.22946506869336453,-0.17071031862028646,-0.07980122771119556
1745333374.1686277,-1.014125,0.1098,-0.024217,-0.0021349999999999997,-0.00244,0.004758,0.22946506869336453,-0.17071031862028646,-0.07980122771119556
1745333374.1734977,-1.015101,0.109068,-0.027999,-0.0018909999999999999,-0.0023179999999999997,0.0050019999999999995,0.22946506869336453,-0.17071031862028646,-0.07980122771119556
1745333374.178453,-1.01565,0.108702,-0.027023,-0.0017079999999999999,-0.002257,0.0048189999999999995,0.22946506869336453,-0.17071031862028646,-0.07980122771119556
1745333374.1833723,-1.01504,0.110105,-0.027206,-0.002074,-0.002623,0.0044529999999999995,0.22946506869336453,-0.17071031862028646,-0.07980122771119556
1745333374.1881526,-1.014003,0.109068,-0.02562,-0.0023179999999999997,-0.0023179999999999997,0.0044529999999999995,0.22946506869336453,-0.17071031862028646,-0.07980122771119556
1745333374.1930082,-1.011929,0.10992199999999999,-0.025803,-0.00244,-0.00244,0.004392,0.22946506869336453,-0.17071031862028646,-0.07980122771119556
1745333374.1978757,-1.013271,0.106201,-0.024522,-0.002013,-0.002745,0.004331,0.22946506869336453,-0.17071031862028646,-0.07980122771119556
1745333374.2027626,-1.014491,0.106811,-0.02684,-0.002074,-0.002196,0.004697,0.22946506869336453,-0.17071031862028646,-0.07980122771119556
1745333374.2076304,-1.013637,0.109556,-0.025498,-0.002257,-0.002257,0.004758,0.22946506869336453,-0.17071031862028646,-0.07980122771119556
1745333374.2127788,-1.012478,0.110166,-0.026535,-0.002196,-0.0025009999999999998,0.004697,0.23706518561824028,-0.16749488453668518,-0.07819351066939491
1745333374.2174308,-1.013698,0.110654,-0.025925,-0.001769,-0.002379,0.004392,0.23706518561824028,-0.16749488453668518,-0.07819351066939491
1745333374.2223005,-1.013698,0.108641,-0.026474,-0.002257,-0.002196,0.004514,0.23706518561824028,-0.16749488453668518,-0.07819351066939491
1745333374.2271593,-1.013271,0.108946,-0.02501,-0.002257,-0.002257,0.0048189999999999995,0.23706518561824028,-0.16749488453668518,-0.07819351066939491
1745333374.2320263,-1.014674,0.109129,-0.024827,-0.0021349999999999997,-0.002623,0.0048189999999999995,0.23706518561824028,-0.16749488453668518,-0.07819351066939491
1745333374.2368944,-1.013698,0.11041,-0.025131999999999998,-0.002074,-0.002623,0.0044529999999999995,0.23706518561824028,-0.16749488453668518,-0.07819351066939491
1745333374.2419016,-1.014003,0.108519,-0.026718,-0.0017079999999999999,-0.002074,0.004209,0.23706518561824028,-0.16749488453668518,-0.07819351066939491
1745333374.2468252,-1.010282,0.107665,-0.024949,-0.002257,-0.002196,0.0044529999999999995,0.23706518561824028,-0.16749488453668518,-0.07819351066939491
1745333374.2516336,-1.013576,0.108641,-0.027327999999999998,-0.002379,-0.002379,0.004697,0.23706518561824028,-0.16749488453668518,-0.07819351066939491
1745333374.2564995,-1.013393,0.108702,-0.026108,-0.002196,-0.0025009999999999998,0.004697,0.23706518561824028,-0.16749488453668518,-0.07819351066939491
1745333374.2613642,-1.012783,0.10931199999999999,-0.02623,-0.002257,-0.0025009999999999998,0.0040869999999999995,0.23706518561824028,-0.16749488453668518,-0.07819351066939491
1745333374.266231,-1.014308,0.10858,-0.024949,-0.002379,-0.002623,0.004697,0.23706518561824028,-0.16749488453668518,-0.07819351066939491
1745333374.2711744,-1.011624,0.109373,-0.023119,-0.002013,-0.00244,0.004514,0.23706518561824028,-0.16749488453668518,-0.07819351066939491
1745333374.2761643,-1.011441,0.108824,-0.024095,-0.001952,-0.0021349999999999997,0.004514,0.23706518561824028,-0.16749488453668518,-0.07819351066939491
1745333374.280908,-1.012356,0.108641,-0.024278,-0.002074,-0.002013,0.004697,0.23706518561824028,-0.16749488453668518,-0.07819351066939491
1745333374.2857704,-1.013271,0.109983,-0.024827,-0.0025009999999999998,-0.002196,0.004575,0.23706518561824028,-0.16749488453668518,-0.07819351066939491
1745333374.290642,-1.014003,0.11041,-0.026047,-0.00183,-0.002074,0.004758,0.23706518561824028,-0.16749488453668518,-0.07819351066939491
1745333374.2955048,-1.011746,0.109556,-0.025681,-0.001952,-0.002379,0.0044529999999999995,0.23706518561824028,-0.16749488453668518,-0.07819351066939491
1745333374.3003776,-1.012356,0.107848,-0.025436999999999998,-0.0023179999999999997,-0.00244,0.004392,0.23706518561824028,-0.16749488453668518,-0.07819351066939491
1745333374.3054602,-1.015101,0.1098,-0.026291,-0.001952,-0.002074,0.004392,0.23706518561824028,-0.16749488453668518,-0.07819351066939491
1745333374.3102114,-1.013515,0.109434,-0.025376,-0.002257,-0.0021349999999999997,0.004575,0.23706518561824028,-0.16749488453668518,-0.07819351066939491
1745333374.315035,-1.01321,0.109983,-0.025436999999999998,-0.0021349999999999997,-0.0025009999999999998,0.004392,0.2318035662087109,-0.16749488453668518,-0.08477053493130664
1745333374.3199093,-1.014369,0.1098,-0.025803,-0.002196,-0.002379,0.004392,0.2318035662087109,-0.16749488453668518,-0.08477053493130664
1745333374.3247721,-1.01321,0.108458,-0.025681,-0.0023179999999999997,-0.0023179999999999997,0.004331,0.2318035662087109,-0.16749488453668518,-0.08477053493130664
1745333374.3296363,-1.014369,0.110959,-0.025925,-0.002196,-0.002379,0.004392,0.2318035662087109,-0.16749488453668518,-0.08477053493130664
1745333374.3345718,-1.012234,0.108824,-0.024278,-0.0023179999999999997,-0.002196,0.004758,0.2318035662087109,-0.16749488453668518,-0.08477053493130664
1745333374.339555,-1.012356,0.108275,-0.023667999999999998,-0.002013,-0.00244,0.004392,0.2318035662087109,-0.16749488453668518,-0.08477053493130664
1745333374.3442988,-1.012295,0.107665,-0.024583,-0.002074,-0.0025009999999999998,0.004392,0.2318035662087109,-0.16749488453668518,-0.08477053493130664
1745333374.349157,-1.0126,0.10900699999999999,-0.025863999999999998,-0.0018909999999999999,-0.002257,0.004575,0.2318035662087109,-0.16749488453668518,-0.08477053493130664
1745333374.3540328,-1.015223,0.10992199999999999,-0.02745,-0.002257,-0.002013,0.004758,0.2318035662087109,-0.16749488453668518,-0.08477053493130664
1745333374.3588932,-1.014003,0.108519,-0.026474,-0.002013,-0.0026839999999999998,0.0044529999999999995,0.2318035662087109,-0.16749488453668518,-0.08477053493130664
1745333374.3637662,-1.012356,0.108763,-0.024461,-0.002196,-0.0025009999999999998,0.004514,0.2318035662087109,-0.16749488453668518,-0.08477053493130664
1745333374.3688776,-1.013271,0.109861,-0.025742,-0.002013,-0.00244,0.004697,0.2318035662087109,-0.16749488453668518,-0.08477053493130664
1745333374.3735383,-1.011441,0.108336,-0.02562,-0.00183,-0.002379,0.0044529999999999995,0.2318035662087109,-0.16749488453668518,-0.08477053493130664
1745333374.3783863,-1.014613,0.108275,-0.026962,-0.0021349999999999997,-0.0021349999999999997,0.004331,0.2318035662087109,-0.16749488453668518,-0.08477053493130664
1745333374.383272,-1.014064,0.11022699999999999,-0.02257,-0.002074,-0.003172,0.004392,0.2318035662087109,-0.16749488453668518,-0.08477053493130664
1745333374.3882442,-1.01199,0.108519,-0.024034,-0.002013,-0.002074,0.004331,0.2318035662087109,-0.16749488453668518,-0.08477053493130664
1745333374.393092,-1.013393,0.109373,-0.027145,-0.0018909999999999999,-0.002623,0.004514,0.2318035662087109,-0.16749488453668518,-0.08477053493130664
1745333374.3979652,-1.014247,0.108702,-0.023851,-0.0021349999999999997,-0.002562,0.0040869999999999995,0.2318035662087109,-0.16749488453668518,-0.08477053493130664
1745333374.4035814,-1.013393,0.11083699999999999,-0.022997,-0.002074,-0.002806,0.004575,0.2318035662087109,-0.16749488453668518,-0.08477053493130664
1745333374.407728,-1.014552,0.10900699999999999,-0.026474,-0.0017079999999999999,-0.0021349999999999997,0.005246,0.2318035662087109,-0.16749488453668518,-0.08477053493130664
1745333374.4125571,-1.00955,0.10797,-0.02684,-0.001647,-0.00183,0.0050019999999999995,0.2318035662087109,-0.16749488453668518,-0.08477053493130664
1745333374.4174192,-1.014064,0.110166,-0.026108,-0.002196,-0.002928,0.004392,0.22391113709441685,-0.16515638702133878,-0.07921660333235896
1745333374.4223015,-1.01687,0.108946,-0.025925,-0.002257,-0.0030499999999999998,0.004331,0.22391113709441685,-0.16515638702133878,-0.07921660333235896
1745333374.427178,-1.008025,0.108885,-0.025193,-0.002013,-0.00183,0.005063,0.22391113709441685,-0.16515638702133878,-0.07921660333235896
1745333374.4323573,-1.010343,0.108702,-0.026962,-0.002013,-0.002013,0.005124,0.22391113709441685,-0.16515638702133878,-0.07921660333235896
1745333374.4369385,-1.014247,0.108641,-0.025559,-0.002074,-0.003111,0.004331,0.22391113709441685,-0.16515638702133878,-0.07921660333235896
1745333374.4417944,-1.016077,0.109495,-0.02379,-0.002196,-0.0025009999999999998,0.004148,0.22391113709441685,-0.16515638702133878,-0.07921660333235896
1745333374.4466612,-1.012295,0.109861,-0.023667999999999998,-0.001647,-0.001464,0.004941,0.22391113709441685,-0.16515638702133878,-0.07921660333235896
1745333374.4515276,-1.009855,0.110288,-0.024461,-0.00183,-0.0013419999999999999,0.0046359999999999995,0.22391113709441685,-0.16515638702133878,-0.07921660333235896
1745333374.4564018,-1.010648,0.108458,-0.025131999999999998,-0.0023179999999999997,-0.0026839999999999998,0.004148,0.22391113709441685,-0.16515638702133878,-0.07921660333235896
1745333374.4614625,-1.015772,0.108397,-0.026047,-0.002379,-0.002928,0.004392,0.22391113709441685,-0.16515638702133878,-0.07921660333235896
1745333374.466247,-1.011502,0.109068,-0.02257,-0.0021349999999999997,-0.002074,0.004697,0.22391113709441685,-0.16515638702133878,-0.07921660333235896
1745333374.4710546,-1.010831,0.108885,-0.026474,-0.002013,-0.002257,0.0048189999999999995,0.22391113709441685,-0.16515638702133878,-0.07921660333235896
1745333374.4758995,-1.013332,0.110166,-0.022814,-0.00183,-0.002623,0.0042699999999999995,0.22391113709441685,-0.16515638702133878,-0.07921660333235896
1745333374.4807668,-1.016199,0.109495,-0.024522,-0.002074,-0.0026839999999999998,0.00488,0.22391113709441685,-0.16515638702133878,-0.07921660333235896
1745333374.485642,-1.017236,0.108641,-0.026595999999999998,-0.002074,-0.001647,0.0048189999999999995,0.22391113709441685,-0.16515638702133878,-0.07921660333235896
1745333374.4912536,-1.010831,0.109556,-0.026595999999999998,-0.0021349999999999997,-0.001769,0.0046359999999999995,0.22391113709441685,-0.16515638702133878,-0.07921660333235896
1745333374.495695,-1.011624,0.107543,-0.024949,-0.002379,-0.002562,0.0044529999999999995,0.22391113709441685,-0.16515638702133878,-0.07921660333235896
1745333374.500325,-1.014674,0.109129,-0.026168999999999998,-0.0018909999999999999,-0.002379,0.004331,0.22391113709441685,-0.16515638702133878,-0.07921660333235896
1745333374.5051925,-1.000156,0.107543,-0.027389,-0.00183,-0.002074,0.004392,0.22391113709441685,-0.16515638702133878,-0.07921660333235896
1745333374.5100567,-1.013637,0.109739,-0.026718,-0.001769,-0.0021349999999999997,0.004392,0.22391113709441685,-0.16515638702133878,-0.07921660333235896
1745333374.51492,-1.015284,0.109251,-0.027023,-0.001952,-0.00244,0.004514,0.22391113709441685,-0.16515638702133878,-0.07921660333235896
1745333374.5197942,-1.015284,0.109434,-0.026718,-0.002074,-0.002745,0.00488,0.22624963460976322,-0.1657410114001754,-0.08301666179479684
1745333374.5249183,-1.011441,0.110776,-0.025131999999999998,-0.002013,-0.0026839999999999998,0.004575,0.22624963460976322,-0.1657410114001754,-0.08301666179479684
1745333374.5295703,-1.013698,0.110166,-0.026413,-0.002196,-0.0023179999999999997,0.004392,0.22624963460976322,-0.1657410114001754,-0.08301666179479684
1745333374.5344203,-1.011563,0.111508,-0.024522,-0.002013,-0.0025009999999999998,0.0046359999999999995,0.22624963460976322,-0.1657410114001754,-0.08301666179479684
1745333374.5393002,-1.013942,0.108946,-0.024644,-0.0021349999999999997,-0.002745,0.004392,0.22624963460976322,-0.1657410114001754,-0.08301666179479684
1745333374.5441558,-1.014857,0.108824,-0.024766,-0.002074,-0.0026839999999999998,0.0040869999999999995,0.22624963460976322,-0.1657410114001754,-0.08301666179479684
1745333374.5490227,-1.012966,0.109495,-0.023667999999999998,-0.002379,-0.002806,0.0044529999999999995,0.22624963460976322,-0.1657410114001754,-0.08301666179479684
1745333374.5539808,-1.012234,0.110471,-0.022509,-0.002562,-0.002745,0.0048189999999999995,0.22624963460976322,-0.1657410114001754,-0.08301666179479684
1745333374.5588927,-1.013332,0.108519,-0.023546,-0.0023179999999999997,-0.002562,0.0048189999999999995,0.22624963460976322,-0.1657410114001754,-0.08301666179479684
1745333374.563665,-1.014491,0.107543,-0.023546,-0.0015249999999999999,-0.002257,0.00488,0.22624963460976322,-0.1657410114001754,-0.08301666179479684
1745333374.5685291,-1.014247,0.110288,-0.025071,-0.0018909999999999999,-0.00244,0.0050019999999999995,0.22624963460976322,-0.1657410114001754,-0.08301666179479684
1745333374.5734003,-1.013576,0.108153,-0.027327999999999998,-0.002074,-0.002257,0.0048189999999999995,0.22624963460976322,-0.1657410114001754,-0.08301666179479684
1745333374.578264,-1.013271,0.108702,-0.024766,-0.0018909999999999999,-0.002196,0.00488,0.22624963460976322,-0.1657410114001754,-0.08301666179479684
1745333374.5831516,-1.013027,0.108092,-0.027511,-0.002196,-0.0023179999999999997,0.0048189999999999995,0.22624963460976322,-0.1657410114001754,-0.08301666179479684
1745333374.588203,-1.01382,0.10858,-0.026413,-0.0025009999999999998,-0.0026839999999999998,0.004514,0.22624963460976322,-0.1657410114001754,-0.08301666179479684
1745333374.5929644,-1.011563,0.108702,-0.028243,-0.00244,-0.0021349999999999997,0.004331,0.22624963460976322,-0.1657410114001754,-0.08301666179479684
1745333374.5977783,-1.010831,0.109861,-0.024644,-0.002379,-0.002379,0.0044529999999999995,0.22624963460976322,-0.1657410114001754,-0.08301666179479684
1745333374.6026475,-1.012539,0.110105,-0.027938,-0.0021349999999999997,-0.0023179999999999997,0.0046359999999999995,0.22624963460976322,-0.1657410114001754,-0.08301666179479684
1745333374.6075115,-1.013515,0.108153,-0.027816,-0.0021349999999999997,-0.001769,0.004575,0.22624963460976322,-0.1657410114001754,-0.08301666179479684
1745333374.6123772,-1.01199,0.108519,-0.026413,-0.002379,-0.0023179999999999997,0.0044529999999999995,0.22624963460976322,-0.1657410114001754,-0.08301666179479684
1745333374.6172843,-1.012539,0.109861,-0.025863999999999998,-0.0021349999999999997,-0.002196,0.004758,0.22624963460976322,-0.1657410114001754,-0.08301666179479684
1745333374.62228,-1.012539,0.10919,-0.026779,-0.002013,-0.0021349999999999997,0.0046359999999999995,0.22712657117801813,-0.16895644548377667,-0.08520900321543408
1745333374.6270328,-1.013759,0.10858,-0.02501,-0.0023179999999999997,-0.002257,0.004026,0.22712657117801813,-0.16895644548377667,-0.08520900321543408
1745333374.631934,-1.012783,0.108458,-0.02257,-0.00244,-0.002562,0.004331,0.22712657117801813,-0.16895644548377667,-0.08520900321543408
1745333374.6367822,-1.014064,0.108519,-0.023972999999999998,-0.002257,-0.002196,0.004514,0.22712657117801813,-0.16895644548377667,-0.08520900321543408
1745333374.6416514,-1.013027,0.108153,-0.024888,-0.002074,-0.0023179999999999997,0.004331,0.22712657117801813,-0.16895644548377667,-0.08520900321543408
1745333374.6465201,-1.012905,0.108092,-0.024095,-0.0017079999999999999,-0.0023179999999999997,0.00488,0.22712657117801813,-0.16895644548377667,-0.08520900321543408
1745333374.6516664,-1.014552,0.10961699999999999,-0.025436999999999998,-0.0017079999999999999,-0.001952,0.004697,0.22712657117801813,-0.16895644548377667,-0.08520900321543408
1745333374.6563048,-1.014003,0.108397,-0.024888,-0.002013,-0.00183,0.004575,0.22712657117801813,-0.16895644548377667,-0.08520900321543408
1745333374.6611514,-1.01321,0.10961699999999999,-0.024704999999999998,-0.002196,-0.00244,0.0046359999999999995,0.22712657117801813,-0.16895644548377667,-0.08520900321543408
1745333374.6660202,-1.010526,0.109739,-0.022021,-0.001952,-0.0028669999999999998,0.0048189999999999995,0.22712657117801813,-0.16895644548377667,-0.08520900321543408
1745333374.670909,-1.011929,0.1098,-0.022631,-0.00183,-0.002013,0.004758,0.22712657117801813,-0.16895644548377667,-0.08520900321543408
1745333374.6757603,-1.012905,0.110105,-0.026718,-0.0018909999999999999,-0.0021349999999999997,0.0046359999999999995,0.22712657117801813,-0.16895644548377667,-0.08520900321543408
1745333374.680708,-1.013088,0.11022699999999999,-0.023729,-0.00183,-0.0015249999999999999,0.0044529999999999995,0.22712657117801813,-0.16895644548377667,-0.08520900321543408
1745333374.6856306,-1.01321,0.111447,-0.025498,-0.001769,-0.002196,0.0048189999999999995,0.22712657117801813,-0.16895644548377667,-0.08520900321543408
1745333374.69041,-1.012417,0.10931199999999999,-0.022509,-0.001586,-0.002257,0.0048189999999999995,0.22712657117801813,-0.16895644548377667,-0.08520900321543408
1745333374.695273,-1.009306,0.10900699999999999,-0.026047,-0.00183,-0.0021349999999999997,0.00488,0.22712657117801813,-0.16895644548377667,-0.08520900321543408
1745333374.7001398,-1.014003,0.11022699999999999,-0.026352,-0.002257,-0.0026839999999999998,0.004758,0.22712657117801813,-0.16895644548377667,-0.08520900321543408
1745333374.7050166,-1.013942,0.109251,-0.025498,-0.002074,-0.002562,0.004575,0.22712657117801813,-0.16895644548377667,-0.08520900321543408
1745333374.7098958,-1.014308,0.10790899999999999,-0.025498,-0.0023179999999999997,-0.002379,0.004514,0.22712657117801813,-0.16895644548377667,-0.08520900321543408
1745333374.714982,-1.013454,0.109129,-0.025193,-0.001952,-0.002379,0.004758,0.22712657117801813,-0.16895644548377667,-0.08520900321543408
1745333374.719668,-1.014918,0.10790899999999999,-0.025681,-0.0017079999999999999,-0.0025009999999999998,0.004575,0.22712657117801813,-0.16895644548377667,-0.08520900321543408
1745333374.7245302,-1.013454,0.108092,-0.026535,-0.0017079999999999999,-0.0018909999999999999,0.004331,0.22946506869336453,-0.1683718211049401,-0.0799473838059047
1745333374.7293942,-1.013027,0.107848,-0.026108,-0.001952,-0.0023179999999999997,0.004758,0.22946506869336453,-0.1683718211049401,-0.0799473838059047
1745333374.7342613,-1.012905,0.10797,-0.023058,-0.0021349999999999997,-0.002562,0.004758,0.22946506869336453,-0.1683718211049401,-0.0799473838059047
1745333374.7391312,-1.014064,0.109678,-0.025498,-0.0017079999999999999,-0.002013,0.004148,0.22946506869336453,-0.1683718211049401,-0.0799473838059047
1745333374.7441688,-1.012417,0.110044,-0.025925,-0.001769,-0.002257,0.0046359999999999995,0.22946506869336453,-0.1683718211049401,-0.0799473838059047
1745333374.7489567,-1.01077,0.108824,-0.028059999999999998,-0.001769,-0.002074,0.004697,0.22946506869336453,-0.1683718211049401,-0.0799473838059047
1745333374.7537634,-1.013637,0.109251,-0.026535,-0.001952,-0.0026839999999999998,0.004575,0.22946506869336453,-0.1683718211049401,-0.0799473838059047
1745333374.7586308,-1.013332,0.110593,-0.02501,-0.0025009999999999998,-0.0023179999999999997,0.004514,0.22946506869336453,-0.1683718211049401,-0.0799473838059047
1745333374.763681,-1.009428,0.110044,-0.024522,-0.002257,-0.001769,0.004392,0.22946506869336453,-0.1683718211049401,-0.0799473838059047
1745333374.768374,-1.012173,0.10961699999999999,-0.02623,-0.002013,-0.002623,0.004575,0.22946506869336453,-0.1683718211049401,-0.0799473838059047
1745333374.773278,-1.013149,0.109129,-0.026718,-0.0015249999999999999,-0.002989,0.004331,0.22946506869336453,-0.1683718211049401,-0.0799473838059047
1745333374.7782648,-1.012966,0.109983,-0.024034,-0.001769,-0.002379,0.004514,0.22946506869336453,-0.1683718211049401,-0.0799473838059047
1745333374.7830174,-1.012295,0.108336,-0.022875,-0.0021349999999999997,-0.002196,0.0046359999999999995,0.22946506869336453,-0.1683718211049401,-0.0799473838059047
1745333374.7879028,-1.012051,0.107482,-0.026352,-0.00183,-0.0021349999999999997,0.004575,0.22946506869336453,-0.1683718211049401,-0.0799473838059047
1745333374.7927706,-1.014491,0.107848,-0.02379,-0.002013,-0.002257,0.0042699999999999995,0.22946506869336453,-0.1683718211049401,-0.0799473838059047
1745333374.7976327,-1.01565,0.108458,-0.023912,-0.0018909999999999999,-0.00244,0.004209,0.22946506869336453,-0.1683718211049401,-0.0799473838059047
1745333374.8025067,-1.011136,0.10729899999999999,-0.022753,-0.00183,-0.002013,0.0048189999999999995,0.22946506869336453,-0.1683718211049401,-0.0799473838059047
1745333374.8079028,-1.012295,0.107787,-0.025436999999999998,-0.0021349999999999997,-0.002196,0.004575,0.22946506869336453,-0.1683718211049401,-0.0799473838059047
1745333374.8123085,-1.014003,0.10760399999999999,-0.026413,-0.0018909999999999999,-0.0021349999999999997,0.004575,0.22946506869336453,-0.1683718211049401,-0.0799473838059047
1745333374.817156,-1.014857,0.108824,-0.024644,-0.0018909999999999999,-0.0025009999999999998,0.0046359999999999995,0.22946506869336453,-0.1683718211049401,-0.0799473838059047
1745333374.8220346,-1.012234,0.10931199999999999,-0.025376,-0.0015249999999999999,-0.002257,0.004575,0.22946506869336453,-0.1683718211049401,-0.0799473838059047
1745333374.8268986,-1.012539,0.108885,-0.027389,-0.0018909999999999999,-0.001769,0.004697,0.2329728149663841,-0.17480268927214265,-0.07790119847997662
1745333374.8317673,-1.013454,0.108946,-0.027023,-0.002074,-0.0017079999999999999,0.004697,0.2329728149663841,-0.17480268927214265,-0.07790119847997662
1745333374.8371236,-1.013942,0.108885,-0.02745,-0.002257,-0.0023179999999999997,0.004514,0.2329728149663841,-0.17480268927214265,-0.07790119847997662
1745333374.8416753,-1.014247,0.108946,-0.029158,-0.002074,-0.0023179999999999997,0.004514,0.2329728149663841,-0.17480268927214265,-0.07790119847997662
1745333374.846438,-1.011868,0.109861,-0.02745,-0.0018909999999999999,-0.0026839999999999998,0.0040869999999999995,0.2329728149663841,-0.17480268927214265,-0.07790119847997662
1745333374.8513014,-1.012783,0.11114199999999999,-0.025193,-0.001769,-0.002562,0.0046359999999999995,0.2329728149663841,-0.17480268927214265,-0.07790119847997662
1745333374.85618,-1.013393,0.109434,-0.026047,-0.002196,-0.002562,0.004758,0.2329728149663841,-0.17480268927214265,-0.07790119847997662
1745333374.861038,-1.013698,0.109495,-0.026291,-0.0021349999999999997,-0.002928,0.004514,0.2329728149663841,-0.17480268927214265,-0.07790119847997662
1745333374.8659306,-1.014674,0.108946,-0.02684,-0.0021349999999999997,-0.002562,0.0046359999999999995,0.2329728149663841,-0.17480268927214265,-0.07790119847997662
1745333374.8709993,-1.014186,0.10790899999999999,-0.024704999999999998,-0.001952,-0.002562,0.004575,0.2329728149663841,-0.17480268927214265,-0.07790119847997662
1745333374.8756957,-1.010953,0.108641,-0.024034,-0.002074,-0.0026839999999999998,0.004758,0.2329728149663841,-0.17480268927214265,-0.07790119847997662
1745333374.8805528,-1.013088,0.093818,-0.025376,-0.001586,-0.0023179999999999997,0.00488,0.2329728149663841,-0.17480268927214265,-0.07790119847997662
1745333374.8854194,-1.013332,0.11053199999999999,-0.024644,-0.0017079999999999999,-0.0017079999999999999,0.0046359999999999995,0.2329728149663841,-0.17480268927214265,-0.07790119847997662
1745333374.8902981,-1.013759,0.110776,-0.024644,-0.0017079999999999999,-0.002196,0.004941,0.2329728149663841,-0.17480268927214265,-0.07790119847997662
1745333374.8951573,-1.013881,0.109861,-0.025742,-0.001952,-0.002257,0.004941,0.2329728149663841,-0.17480268927214265,-0.07790119847997662
1745333374.9001842,-1.0126,0.109495,-0.026168999999999998,-0.0021349999999999997,-0.002196,0.004697,0.2329728149663841,-0.17480268927214265,-0.07790119847997662
1745333374.9049757,-1.012783,0.1098,-0.026108,-0.002074,-0.0023179999999999997,0.0048189999999999995,0.2329728149663841,-0.17480268927214265,-0.07790119847997662
1745333374.909809,-1.015589,0.110288,-0.026962,-0.0021349999999999997,-0.001952,0.004331,0.2329728149663841,-0.17480268927214265,-0.07790119847997662
1745333374.914682,-1.013637,0.110044,-0.025131999999999998,-0.001952,-0.002013,0.0044529999999999995,0.2329728149663841,-0.17480268927214265,-0.07790119847997662
1745333374.919557,-1.014003,0.108641,-0.026535,-0.002196,-0.002196,0.004209,0.2329728149663841,-0.17480268927214265,-0.07790119847997662
1745333374.9244177,-1.013271,0.108885,-0.025193,-0.00183,-0.001952,0.004697,0.2329728149663841,-0.17480268927214265,-0.07790119847997662
1745333374.9293191,-1.013393,0.10919,-0.025315,-0.00183,-0.002257,0.004514,0.22888044431452792,-0.16749488453668518,-0.08988599824612686
1745333374.9343095,-1.011258,0.110593,-0.024888,-0.0021349999999999997,-0.002562,0.0042699999999999995,0.22888044431452792,-0.16749488453668518,-0.08988599824612686
1745333374.939067,-1.013942,0.108946,-0.024399999999999998,-0.0021349999999999997,-0.002745,0.004392,0.22888044431452792,-0.16749488453668518,-0.08988599824612686
1745333374.9438915,-1.012478,0.108031,-0.024583,-0.00183,-0.0025009999999999998,0.004575,0.22888044431452792,-0.16749488453668518,-0.08988599824612686
1745333374.9487576,-1.015162,0.108702,-0.022509,-0.002013,-0.00244,0.004697,0.22888044431452792,-0.16749488453668518,-0.08988599824612686
1745333374.9536293,-1.014552,0.10797,-0.02501,-0.002257,-0.002379,0.004575,0.22888044431452792,-0.16749488453668518,-0.08988599824612686
1745333374.958501,-1.01199,0.107421,-0.025925,-0.0023179999999999997,-0.002013,0.004331,0.22888044431452792,-0.16749488453668518,-0.08988599824612686
1745333374.9636688,-1.013576,0.107848,-0.027023,-0.002074,-0.002196,0.004514,0.22888044431452792,-0.16749488453668518,-0.08988599824612686
1745333374.96828,-1.012234,0.108092,-0.024339,-0.002013,-0.002196,0.004392,0.22888044431452792,-0.16749488453668518,-0.08988599824612686
1745333374.9731362,-1.012051,0.108336,-0.024339,-0.0021349999999999997,-0.002074,0.0046359999999999995,0.22888044431452792,-0.16749488453668518,-0.08988599824612686
1745333374.9779966,-1.013881,0.108824,-0.025193,-0.002196,-0.0023179999999999997,0.004758,0.22888044431452792,-0.16749488453668518,-0.08988599824612686
1745333374.9828622,-1.011868,0.108519,-0.025254,-0.002013,-0.002196,0.004514,0.22888044431452792,-0.16749488453668518,-0.08988599824612686
1745333374.98773,-1.012844,0.109373,-0.025559,-0.0023179999999999997,-0.0028669999999999998,0.004575,0.22888044431452792,-0.16749488453668518,-0.08988599824612686
1745333374.992685,-1.014857,0.11102,-0.026413,-0.002013,-0.002257,0.0044529999999999995,0.22888044431452792,-0.16749488453668518,-0.08988599824612686
1745333374.9976122,-1.010465,0.108824,-0.024399999999999998,-0.002074,-0.0023179999999999997,0.0044529999999999995,0.22888044431452792,-0.16749488453668518,-0.08988599824612686
1745333375.002413,-1.015711,0.10931199999999999,-0.027511,-0.0021349999999999997,-0.002623,0.004758,0.22888044431452792,-0.16749488453668518,-0.08988599824612686
1745333375.007263,-1.014613,0.109068,-0.02379,-0.002196,-0.00366,0.004331,0.22888044431452792,-0.16749488453668518,-0.08988599824612686
1745333375.01214,-1.011929,0.109434,-0.027999,-0.001769,-0.0011589999999999999,0.004392,0.22888044431452792,-0.16749488453668518,-0.08988599824612686
1745333375.0169919,-1.011868,0.10961699999999999,-0.024644,-0.0028669999999999998,-0.002806,0.004575,0.22888044431452792,-0.16749488453668518,-0.08988599824612686
1745333375.021888,-1.013027,0.108214,-0.024949,-0.0023179999999999997,-0.002257,0.004026,0.22888044431452792,-0.16749488453668518,-0.08988599824612686
1745333375.0269666,-1.010709,0.108214,-0.021533,-0.002379,-0.002806,0.00488,0.22888044431452792,-0.16749488453668518,-0.08988599824612686
1745333375.0316572,-1.014674,0.110898,-0.026718,-0.002196,-0.00183,0.004331,0.22683425898859982,-0.16778719672610348,-0.08579362759427069
1745333375.036514,-1.010465,0.107787,-0.028364999999999998,-0.0018909999999999999,-0.0021349999999999997,0.004697,0.22683425898859982,-0.16778719672610348,-0.08579362759427069
1745333375.0413818,-1.017419,0.111691,-0.022143,-0.002013,-0.0023179999999999997,0.0044529999999999995,0.22683425898859982,-0.16778719672610348,-0.08579362759427069
1745333375.0462472,-1.013881,0.109251,-0.021899,-0.00183,-0.0013419999999999999,0.004392,0.22683425898859982,-0.16778719672610348,-0.08579362759427069
1745333375.0511134,-1.007781,0.108763,-0.026535,-0.002257,-0.0030499999999999998,0.004514,0.22683425898859982,-0.16778719672610348,-0.08579362759427069
1745333375.0561562,-1.014735,0.10900699999999999,-0.026535,-0.001952,-0.002989,0.004575,0.22683425898859982,-0.16778719672610348,-0.08579362759427069
1745333375.0614908,-1.010648,0.10858,-0.02623,-0.001464,-0.0011589999999999999,0.0046359999999999995,0.22683425898859982,-0.16778719672610348,-0.08579362759427069
1745333375.0663059,-1.013759,0.110166,-0.026291,-0.002196,-0.0021349999999999997,0.004575,0.22683425898859982,-0.16778719672610348,-0.08579362759427069
1745333375.0711732,-1.011929,0.107848,-0.027572,-0.001952,-0.002074,0.004392,0.22683425898859982,-0.16778719672610348,-0.08579362759427069
1745333375.0760357,-1.0126,0.107116,-0.018178,-0.002379,-0.003294,0.004331,0.22683425898859982,-0.16778719672610348,-0.08579362759427069
