Timestamp,Accel X,Accel Y,Accel Z,Gyro X,Gyro Y,Gyro Z,Magneto X,Magneto Y,Magneto Z
1745333212.7887402,-1.013454,0.105896,-0.025315,-0.002074,-0.002196,0.004575,0.23677287342882197,-0.17071031862028646,-0.08360128617363344
1745333212.8080242,-1.011319,0.107421,-0.026779,-0.002074,-0.002074,0.004514,0.23677287342882197,-0.17071031862028646,-0.08360128617363344
1745333212.82735,-1.014552,0.105652,-0.025315,-0.0021349999999999997,-0.002562,0.004514,0.23677287342882197,-0.17071031862028646,-0.08360128617363344
1745333212.8466117,-1.013027,0.10431,-0.024949,-0.0018909999999999999,-0.002379,0.004514,0.23677287342882197,-0.17071031862028646,-0.08360128617363344
1745333212.8659577,-1.012661,0.105652,-0.025498,-0.002074,-0.002257,0.004575,0.23677287342882197,-0.17071031862028646,-0.08360128617363344
1745333212.8853536,-1.012661,0.106323,-0.02623,-0.0021349999999999997,-0.0025009999999999998,0.004392,0.23677287342882197,-0.17071031862028646,-0.08360128617363344
1745333212.9045422,-1.013393,0.105652,-0.025863999999999998,-0.001952,-0.00244,0.004575,0.23677287342882197,-0.17071031862028646,-0.08360128617363344
1745333212.923942,-1.014247,0.104737,-0.025436999999999998,-0.0021349999999999997,-0.00244,0.004697,0.23677287342882197,-0.17071031862028646,-0.08360128617363344
1745333212.94321,-1.013576,0.10699399999999999,-0.026718,-0.002074,-0.002257,0.004758,0.23677287342882197,-0.17071031862028646,-0.08360128617363344
1745333212.9625137,-1.014064,0.105835,-0.02684,-0.002257,-0.0023179999999999997,0.004575,0.23677287342882197,-0.17071031862028646,-0.08360128617363344
1745333212.9818568,-1.013576,0.105042,-0.025863999999999998,-0.0021349999999999997,-0.0023179999999999997,0.004575,0.23677287342882197,-0.17071031862028646,-0.08360128617363344
1745333213.0010896,-1.013393,0.10614,-0.025925,-0.0021349999999999997,-0.00244,0.0046359999999999995,0.23677287342882197,-0.17071031862028646,-0.08360128617363344
1745333213.0204265,-1.012112,0.10729899999999999,-0.026413,-0.0021349999999999997,-0.0023179999999999997,0.0044529999999999995,0.23677287342882197,-0.17071031862028646,-0.08360128617363344
1745333213.0398753,-1.014186,0.102602,-0.019825,-0.002257,-0.003111,0.0042699999999999995,0.23677287342882197,-0.17071031862028646,-0.08360128617363344
1745333213.0590348,-1.014613,0.105286,-0.020801,-0.0018909999999999999,-0.0021349999999999997,0.0046359999999999995,0.23677287342882197,-0.17071031862028646,-0.08360128617363344
1745333213.0783443,-1.012722,0.111874,-0.030683,-0.0017079999999999999,-0.001037,0.005124,0.23677287342882197,-0.17071031862028646,-0.08360128617363344
1745333213.0976062,-1.011807,0.10675,-0.027511,-0.002379,-0.0032329999999999998,0.004209,0.23677287342882197,-0.17071031862028646,-0.08360128617363344
1745333213.11694,-1.015528,0.10065,-0.022997,-0.002257,-0.0025009999999999998,0.004575,0.23940368313358668,-0.16720257234726688,-0.08126278865828705
1745333213.1364532,-1.014613,0.102175,-0.023546,-0.0021349999999999997,-0.0026839999999999998,0.004514,0.23940368313358668,-0.16720257234726688,-0.08126278865828705
1745333213.155536,-1.011502,0.10900699999999999,-0.029646,-0.001647,-0.0011589999999999999,0.0050019999999999995,0.23940368313358668,-0.16720257234726688,-0.08126278865828705
1745333213.1748857,-1.0126,0.109068,-0.026168999999999998,-0.002074,-0.002928,0.004331,0.23940368313358668,-0.16720257234726688,-0.08126278865828705
1745333213.1941698,-1.013759,0.102785,-0.021471999999999998,-0.002196,-0.002928,0.004331,0.23940368313358668,-0.16720257234726688,-0.08126278865828705
1745333213.2134926,-1.014796,0.103822,-0.022509,-0.001769,-0.002379,0.0046359999999999995,0.23940368313358668,-0.16720257234726688,-0.08126278865828705
1745333213.2328513,-1.012051,0.107116,-0.028731,-0.001769,-0.001647,0.0050019999999999995,0.23940368313358668,-0.16720257234726688,-0.08126278865828705
1745333213.2521,-1.012295,0.10729899999999999,-0.029402,-0.0021349999999999997,-0.00244,0.004697,0.23940368313358668,-0.16720257234726688,-0.08126278865828705
1745333213.2714071,-1.014491,0.10345599999999999,-0.024399999999999998,-0.00244,-0.0028669999999999998,0.004514,0.23940368313358668,-0.16720257234726688,-0.08126278865828705
1745333213.2907846,-1.015406,0.103395,-0.022997,-0.0021349999999999997,-0.002379,0.0044529999999999995,0.23940368313358668,-0.16720257234726688,-0.08126278865828705
1745333213.310036,-1.012234,0.107482,-0.026595999999999998,-0.002074,-0.0017079999999999999,0.004758,0.23940368313358668,-0.16720257234726688,-0.08126278865828705
1745333213.3293397,-1.013393,0.108519,-0.026291,-0.002196,-0.002379,0.004514,0.23940368313358668,-0.16720257234726688,-0.08126278865828705
1745333213.3486006,-1.013515,0.104493,-0.023302,-0.002196,-0.0028669999999999998,0.0042699999999999995,0.23940368313358668,-0.16720257234726688,-0.08126278865828705
1745333213.3679643,-1.014003,0.103517,-0.023972999999999998,-0.002196,-0.002379,0.004575,0.23940368313358668,-0.16720257234726688,-0.08126278865828705
1745333213.3875391,-1.012661,0.10699399999999999,-0.027389,-0.0021349999999999997,-0.001769,0.0046359999999999995,0.23940368313358668,-0.16720257234726688,-0.08126278865828705
1745333213.4066176,-1.011868,0.107848,-0.026657,-0.0021349999999999997,-0.0025009999999999998,0.0046359999999999995,0.23940368313358668,-0.16720257234726688,-0.08126278865828705
1745333213.425906,-1.013942,0.104859,-0.02379,-0.0023179999999999997,-0.002623,0.004575,0.23940368313358668,-0.16720257234726688,-0.08126278865828705
1745333213.4451766,-1.014125,0.104005,-0.023119,-0.002074,-0.002623,0.0044529999999999995,0.23940368313358668,-0.16720257234726688,-0.08126278865828705
1745333213.464506,-1.012966,0.106872,-0.026413,-0.001769,-0.001952,0.00488,0.23940368313358668,-0.16720257234726688,-0.08126278865828705
1745333213.4838967,-1.012478,0.107116,-0.026657,-0.0018909999999999999,-0.00244,0.004514,0.23940368313358668,-0.16720257234726688,-0.08126278865828705
1745333213.5031548,-1.013637,0.104493,-0.024399999999999998,-0.0023179999999999997,-0.002562,0.004575,0.23940368313358668,-0.16720257234726688,-0.08126278865828705
1745333213.5224712,-1.014369,0.104005,-0.024217,-0.002074,-0.0021349999999999997,0.004697,0.23735749780765858,-0.1639871382636656,-0.08213972522654195
1745333213.5417852,-1.013271,0.10607899999999999,-0.028304,-0.001952,-0.0018909999999999999,0.0048189999999999995,0.23735749780765858,-0.1639871382636656,-0.08213972522654195
1745333213.5610602,-1.011807,0.106872,-0.027327999999999998,-0.0023179999999999997,-0.002379,0.004575,0.23735749780765858,-0.1639871382636656,-0.08213972522654195
1745333213.5804474,-1.014552,0.104554,-0.024095,-0.002257,-0.0026839999999999998,0.004575,0.23735749780765858,-0.1639871382636656,-0.08213972522654195
1745333213.59967,-1.013698,0.10467599999999999,-0.02318,-0.0021349999999999997,-0.00244,0.004575,0.23735749780765858,-0.1639871382636656,-0.08213972522654195
1745333213.6190126,-1.014125,0.105713,-0.025863999999999998,-0.00183,-0.002074,0.004758,0.23735749780765858,-0.1639871382636656,-0.08213972522654195
1745333213.638435,-1.012844,0.105896,-0.027267,-0.001952,-0.0023179999999999997,0.0046359999999999995,0.23735749780765858,-0.1639871382636656,-0.08213972522654195
1745333213.6576257,-1.013637,0.104798,-0.02623,-0.002074,-0.002562,0.0048189999999999995,0.23735749780765858,-0.1639871382636656,-0.08213972522654195
1745333213.6769364,-1.013088,0.105591,-0.024034,-0.002074,-0.00244,0.0048189999999999995,0.23735749780765858,-0.1639871382636656,-0.08213972522654195
1745333213.6962059,-1.012905,0.107482,-0.024766,-0.001952,-0.002074,0.0046359999999999995,0.23735749780765858,-0.1639871382636656,-0.08213972522654195
1745333213.71554,-1.013454,0.10699399999999999,-0.026291,-0.00183,-0.002379,0.004514,0.23735749780765858,-0.1639871382636656,-0.08213972522654195
1745333213.7350686,-1.013942,0.10492,-0.025863999999999998,-0.001952,-0.0025009999999999998,0.0046359999999999995,0.23735749780765858,-0.1639871382636656,-0.08213972522654195
1745333213.7541459,-1.01382,0.104188,-0.025498,-0.002074,-0.0025009999999999998,0.004514,0.23735749780765858,-0.1639871382636656,-0.08213972522654195
1745333213.7734618,-1.012539,0.105896,-0.026168999999999998,-0.002196,-0.002257,0.004697,0.23735749780765858,-0.1639871382636656,-0.08213972522654195
1745333213.7927172,-1.014308,0.106628,-0.025498,-0.0023179999999999997,-0.00244,0.004697,0.23735749780765858,-0.1639871382636656,-0.08213972522654195
1745333213.8120627,-1.013149,0.10553,-0.024583,-0.0021349999999999997,-0.0023179999999999997,0.004514,0.23735749780765858,-0.1639871382636656,-0.08213972522654195
1745333213.8314342,-1.01443,0.105713,-0.023972999999999998,-0.0021349999999999997,-0.002562,0.0046359999999999995,0.23735749780765858,-0.1639871382636656,-0.08213972522654195
1745333213.8506453,-1.012783,0.106323,-0.025742,-0.0018909999999999999,-0.002196,0.004697,0.23735749780765858,-0.1639871382636656,-0.08213972522654195
1745333213.8699806,-1.013027,0.10577399999999999,-0.026535,-0.00183,-0.002196,0.0046359999999999995,0.23735749780765858,-0.1639871382636656,-0.08213972522654195
1745333213.8892949,-1.012844,0.10492,-0.025681,-0.002013,-0.002379,0.0046359999999999995,0.23735749780765858,-0.1639871382636656,-0.08213972522654195
1745333213.9085894,-1.01382,0.10492,-0.025559,-0.001952,-0.00244,0.0044529999999999995,0.23735749780765858,-0.1639871382636656,-0.08213972522654195
1745333213.9280033,-1.013576,0.10638399999999999,-0.025376,-0.00183,-0.002379,0.004697,0.2303420052616194,-0.1619409529377375,-0.09617071031862029
1745333213.9471743,-1.0126,0.107116,-0.025376,-0.002196,-0.00244,0.004575,0.2303420052616194,-0.1619409529377375,-0.09617071031862029
1745333213.9665139,-1.012722,0.105591,-0.024278,-0.002013,-0.0023179999999999997,0.004331,0.2303420052616194,-0.1619409529377375,-0.09617071031862029
1745333213.986013,-1.01321,0.105225,-0.025742,-0.002074,-0.00244,0.004575,0.2303420052616194,-0.1619409529377375,-0.09617071031862029
1745333214.0051706,-1.013881,0.10553,-0.025803,-0.002013,-0.002379,0.0046359999999999995,0.2303420052616194,-0.1619409529377375,-0.09617071031862029
1745333214.0244896,-1.011807,0.105591,-0.026291,-0.0018909999999999999,-0.002257,0.004514,0.2303420052616194,-0.1619409529377375,-0.09617071031862029
1745333214.0437508,-1.013881,0.105164,-0.024766,-0.001952,-0.0025009999999999998,0.004758,0.2303420052616194,-0.1619409529377375,-0.09617071031862029
1745333214.0630867,-1.013515,0.105225,-0.025315,-0.0021349999999999997,-0.002379,0.004697,0.2303420052616194,-0.1619409529377375,-0.09617071031862029
1745333214.0825984,-1.013454,0.105896,-0.025681,-0.001952,-0.002074,0.0046359999999999995,0.2303420052616194,-0.1619409529377375,-0.09617071031862029
1745333214.101678,-1.0126,0.106872,-0.025681,-0.002074,-0.002196,0.004392,0.2303420052616194,-0.1619409529377375,-0.09617071031862029
1745333214.1210117,-1.013088,0.106201,-0.02379,-0.0021349999999999997,-0.002196,0.004697,0.2303420052616194,-0.1619409529377375,-0.09617071031862029
1745333214.1403117,-1.014003,0.105286,-0.024522,-0.002196,-0.002257,0.004575,0.2303420052616194,-0.1619409529377375,-0.09617071031862029
1745333214.1596415,-1.014186,0.105957,-0.02623,-0.002074,-0.002257,0.0046359999999999995,0.2303420052616194,-0.1619409529377375,-0.09617071031862029
1745333214.178984,-1.0126,0.10607899999999999,-0.025559,-0.0023179999999999997,-0.002623,0.004575,0.2303420052616194,-0.1619409529377375,-0.09617071031862029
1745333214.198198,-1.014125,0.104615,-0.025376,-0.002013,-0.0023179999999999997,0.0046359999999999995,0.2303420052616194,-0.1619409529377375,-0.09617071031862029
1745333214.2175322,-1.013027,0.104737,-0.026047,-0.002074,-0.00244,0.004514,0.2303420052616194,-0.1619409529377375,-0.09617071031862029
1745333214.2369323,-1.01382,0.10553,-0.027267,-0.001952,-0.002196,0.004514,0.2303420052616194,-0.1619409529377375,-0.09617071031862029
1745333214.256174,-1.013393,0.105469,-0.026047,-0.002074,-0.002379,0.004514,0.2303420052616194,-0.1619409529377375,-0.09617071031862029
1745333214.2754922,-1.013149,0.105042,-0.02318,-0.002257,-0.002379,0.004514,0.2303420052616194,-0.1619409529377375,-0.09617071031862029
1745333214.2947454,-1.013576,0.10668899999999999,-0.024827,-0.002013,-0.002196,0.0044529999999999995,0.2303420052616194,-0.1619409529377375,-0.09617071031862029
1745333214.3140998,-1.013332,0.10638399999999999,-0.025925,-0.0018909999999999999,-0.002257,0.004331,0.2303420052616194,-0.1619409529377375,-0.09617071031862029
1745333214.3345287,-1.013637,0.105408,-0.02623,-0.002013,-0.002257,0.0046359999999999995,0.22654194679918152,-0.1607717041800643,-0.09047062262496346
1745333214.353532,-1.014308,0.104493,-0.026352,-0.002074,-0.00244,0.004514,0.22654194679918152,-0.1607717041800643,-0.09047062262496346
1745333214.37288,-1.013454,0.105042,-0.025742,-0.001952,-0.002379,0.004697,0.22654194679918152,-0.1607717041800643,-0.09047062262496346
1745333214.3923705,-1.013027,0.106933,-0.025742,-0.002013,-0.002379,0.0044529999999999995,0.22654194679918152,-0.1607717041800643,-0.09047062262496346
1745333214.4116077,-1.012539,0.106933,-0.025131999999999998,-0.002074,-0.002562,0.004575,0.22654194679918152,-0.1607717041800643,-0.09047062262496346
1745333214.430967,-1.013576,0.105286,-0.024278,-0.002013,-0.002562,0.004575,0.22654194679918152,-0.1607717041800643,-0.09047062262496346
1745333214.4501727,-1.013637,0.105591,-0.026108,-0.002074,-0.0023179999999999997,0.004758,0.22654194679918152,-0.1607717041800643,-0.09047062262496346
1745333214.469514,-1.01443,0.105652,-0.027023,-0.002074,-0.0023179999999999997,0.0046359999999999995,0.22654194679918152,-0.1607717041800643,-0.09047062262496346
1745333214.4892213,-1.013393,0.105408,-0.025925,-0.002257,-0.002379,0.0048189999999999995,0.22654194679918152,-0.1607717041800643,-0.09047062262496346
1745333214.508135,-1.013271,0.105652,-0.025193,-0.002379,-0.002379,0.004575,0.22654194679918152,-0.1607717041800643,-0.09047062262496346
1745333214.5274494,-1.013759,0.106262,-0.024644,-0.002074,-0.002196,0.004697,0.22654194679918152,-0.1607717041800643,-0.09047062262496346
1745333214.5467126,-1.013027,0.106872,-0.024888,-0.002074,-0.00244,0.004514,0.22654194679918152,-0.1607717041800643,-0.09047062262496346
1745333214.5660625,-1.012722,0.106567,-0.024644,-0.002013,-0.0021349999999999997,0.004392,0.22654194679918152,-0.1607717041800643,-0.09047062262496346
1745333214.586559,-1.01443,0.10492,-0.025254,-0.001952,-0.0023179999999999997,0.0044529999999999995,0.22654194679918152,-0.1607717041800643,-0.09047062262496346
1745333214.6055505,-1.012783,0.105103,-0.02684,-0.002074,-0.002257,0.004575,0.22654194679918152,-0.1607717041800643,-0.09047062262496346
1745333214.6249075,-1.013454,0.10492,-0.027267,-0.002074,-0.0025009999999999998,0.004392,0.22654194679918152,-0.1607717041800643,-0.09047062262496346
1745333214.6442099,-1.013454,0.106201,-0.024583,-0.002257,-0.0023179999999999997,0.004575,0.22654194679918152,-0.1607717041800643,-0.09047062262496346
1745333214.663522,-1.014308,0.10553,-0.023302,-0.0023179999999999997,-0.002562,0.0044529999999999995,0.22654194679918152,-0.1607717041800643,-0.09047062262496346
1745333214.6828892,-1.013698,0.106018,-0.024339,-0.001952,-0.0021349999999999997,0.004392,0.22654194679918152,-0.1607717041800643,-0.09047062262496346
1745333214.70256,-1.013698,0.10699399999999999,-0.025925,-0.001952,-0.0023179999999999997,0.004392,0.22654194679918152,-0.1607717041800643,-0.09047062262496346
1745333214.721474,-1.014247,0.10553,-0.026962,-0.002013,-0.002257,0.004392,0.22654194679918152,-0.1607717041800643,-0.09047062262496346
1745333214.7408347,-1.012783,0.10498099999999999,-0.02562,-0.0021349999999999997,-0.00244,0.004575,0.233849751534639,-0.16778719672610348,-0.09456299327681965
1745333214.7601194,-1.013576,0.106567,-0.024095,-0.002257,-0.00244,0.004758,0.233849751534639,-0.16778719672610348,-0.09456299327681965
1745333214.779434,-1.012417,0.107482,-0.024461,-0.002074,-0.002257,0.004514,0.233849751534639,-0.16778719672610348,-0.09456299327681965
1745333214.798777,-1.014247,0.106262,-0.025254,-0.002074,-0.00244,0.004697,0.233849751534639,-0.16778719672610348,-0.09456299327681965
1745333214.8180468,-1.012783,0.105042,-0.024827,-0.002074,-0.0023179999999999997,0.0046359999999999995,0.233849751534639,-0.16778719672610348,-0.09456299327681965
1745333214.8384311,-1.01321,0.104798,-0.025681,-0.001952,-0.002257,0.004758,0.233849751534639,-0.16778719672610348,-0.09456299327681965
1745333214.8574698,-1.012417,0.105835,-0.025925,-0.002074,-0.002257,0.004758,0.233849751534639,-0.16778719672610348,-0.09456299327681965
1745333214.8768094,-1.014247,0.10607899999999999,-0.026962,-0.0021349999999999997,-0.002257,0.004758,0.233849751534639,-0.16778719672610348,-0.09456299327681965
1745333214.8970985,-1.013332,0.105408,-0.025193,-0.002074,-0.002257,0.004514,0.233849751534639,-0.16778719672610348,-0.09456299327681965
1745333214.9154236,-1.013576,0.105347,-0.02318,-0.0021349999999999997,-0.0025009999999999998,0.0046359999999999995,0.233849751534639,-0.16778719672610348,-0.09456299327681965
1745333214.9348304,-1.014247,0.10729899999999999,-0.024583,-0.0018909999999999999,-0.002074,0.004758,0.233849751534639,-0.16778719672610348,-0.09456299327681965
1745333214.9540248,-1.013881,0.106567,-0.026474,-0.002013,-0.002379,0.004575,0.233849751534639,-0.16778719672610348,-0.09456299327681965
1745333214.9733787,-1.013637,0.10553,-0.026352,-0.0018909999999999999,-0.002562,0.004697,0.233849751534639,-0.16778719672610348,-0.09456299327681965
1745333214.995103,-1.014125,0.10437099999999999,-0.025803,-0.0021349999999999997,-0.0025009999999999998,0.0044529999999999995,0.233849751534639,-0.16778719672610348,-0.09456299327681965
1745333215.0119748,-1.013881,0.105591,-0.026047,-0.002196,-0.0023179999999999997,0.0044529999999999995,0.233849751534639,-0.16778719672610348,-0.09456299327681965
1745333215.031318,-1.013027,0.107238,-0.02501,-0.002013,-0.002379,0.004514,0.233849751534639,-0.16778719672610348,-0.09456299327681965
1745333215.0505729,-1.012844,0.106933,-0.024522,-0.0021349999999999997,-0.00244,0.004514,0.233849751534639,-0.16778719672610348,-0.09456299327681965
1745333215.0699294,-1.014247,0.105225,-0.024461,-0.002074,-0.002379,0.004514,0.233849751534639,-0.16778719672610348,-0.09456299327681965
1745333215.090337,-1.013576,0.10492,-0.026900999999999998,-0.001952,-0.002196,0.0044529999999999995,0.233849751534639,-0.16778719672610348,-0.09456299327681965
1745333215.109365,-1.012661,0.104554,-0.028059999999999998,-0.001952,-0.002196,0.004575,0.233849751534639,-0.16778719672610348,-0.09456299327681965
1745333215.128709,-1.014003,0.105591,-0.026474,-0.002074,-0.0025009999999999998,0.0044529999999999995,0.233849751534639,-0.16778719672610348,-0.09456299327681965
1745333215.14897,-1.013027,0.105713,-0.024399999999999998,-0.002074,-0.0023179999999999997,0.004575,0.233849751534639,-0.16778719672610348,-0.09456299327681965
1745333215.1673217,-1.013088,0.106506,-0.022875,-0.002196,-0.002257,0.004575,0.23531131248173048,-0.16807950891552179,-0.0822858813212511
1745333215.1867023,-1.013942,0.10607899999999999,-0.025071,-0.002074,-0.002257,0.004697,0.23531131248173048,-0.16807950891552179,-0.0822858813212511
1745333215.2059286,-1.013271,0.10553,-0.026352,-0.00183,-0.002379,0.0044529999999999995,0.23531131248173048,-0.16807950891552179,-0.0822858813212511
1745333215.225269,-1.013942,0.105469,-0.026595999999999998,-0.0018909999999999999,-0.0023179999999999997,0.004514,0.23531131248173048,-0.16807950891552179,-0.0822858813212511
1745333215.245041,-1.013881,0.104859,-0.026291,-0.002074,-0.0025009999999999998,0.0044529999999999995,0.23531131248173048,-0.16807950891552179,-0.0822858813212511
1745333215.2640543,-1.013393,0.106506,-0.024217,-0.002074,-0.0025009999999999998,0.004514,0.23531131248173048,-0.16807950891552179,-0.0822858813212511
1745333215.28337,-1.013637,0.106567,-0.023972999999999998,-0.002257,-0.002257,0.004575,0.23531131248173048,-0.16807950891552179,-0.0822858813212511
1745333215.3026276,-1.012966,0.106872,-0.023851,-0.002013,-0.002196,0.004575,0.23531131248173048,-0.16807950891552179,-0.0822858813212511
1745333215.321981,-1.013698,0.104737,-0.024034,-0.001952,-0.002257,0.0044529999999999995,0.23531131248173048,-0.16807950891552179,-0.0822858813212511
1745333215.3423934,-1.013027,0.104249,-0.026595999999999998,-0.0018909999999999999,-0.002379,0.004331,0.23531131248173048,-0.16807950891552179,-0.0822858813212511
1745333215.3614697,-1.013698,0.105408,-0.026779,-0.002074,-0.00244,0.0046359999999999995,0.23531131248173048,-0.16807950891552179,-0.0822858813212511
1745333215.3807795,-1.012966,0.105652,-0.026168999999999998,-0.0021349999999999997,-0.0025009999999999998,0.004575,0.23531131248173048,-0.16807950891552179,-0.0822858813212511
1745333215.4011872,-1.013393,0.106506,-0.024339,-0.0018909999999999999,-0.002623,0.004331,0.23531131248173048,-0.16807950891552179,-0.0822858813212511
1745333215.4194078,-1.01321,0.106262,-0.024278,-0.002013,-0.00244,0.0044529999999999995,0.23531131248173048,-0.16807950891552179,-0.0822858813212511
1745333215.4387894,-1.013454,0.106445,-0.024888,-0.0021349999999999997,-0.0023179999999999997,0.004697,0.23531131248173048,-0.16807950891552179,-0.0822858813212511
1745333215.4579978,-1.013332,0.10553,-0.027816,-0.001952,-0.00244,0.004575,0.23531131248173048,-0.16807950891552179,-0.0822858813212511
1745333215.4773555,-1.01382,0.104554,-0.026595999999999998,-0.0023179999999999997,-0.0025009999999999998,0.004697,0.23531131248173048,-0.16807950891552179,-0.0822858813212511
1745333215.4998198,-1.013271,0.105713,-0.026108,-0.0018909999999999999,-0.002257,0.004697,0.23531131248173048,-0.16807950891552179,-0.0822858813212511
1745333215.5188189,-1.013637,0.10760399999999999,-0.02379,-0.002074,-0.002257,0.004514,0.23531131248173048,-0.16807950891552179,-0.0822858813212511
1745333215.5381627,-1.0126,0.10736,-0.024522,-0.0021349999999999997,-0.002379,0.0046359999999999995,0.23531131248173048,-0.16807950891552179,-0.0822858813212511
1745333215.5575964,-1.014064,0.10614,-0.024278,-0.0018909999999999999,-0.0023179999999999997,0.004697,0.23531131248173048,-0.16807950891552179,-0.0822858813212511
1745333215.5767782,-1.013454,0.104432,-0.025436999999999998,-0.002074,-0.002257,0.004514,0.24291142940660626,-0.17187956737795967,-0.08477053493130664
1745333215.596152,-1.013942,0.104737,-0.026413,-0.0021349999999999997,-0.002196,0.004575,0.24291142940660626,-0.17187956737795967,-0.08477053493130664
1745333215.6153593,-1.013332,0.105591,-0.026108,-0.002196,-0.002257,0.004575,0.24291142940660626,-0.17187956737795967,-0.08477053493130664
1745333215.6347165,-1.013759,0.10638399999999999,-0.025559,-0.002013,-0.002562,0.004575,0.24291142940660626,-0.17187956737795967,-0.08477053493130664
1745333215.6561852,-1.014003,0.105286,-0.023729,-0.0021349999999999997,-0.0023179999999999997,0.0044529999999999995,0.24291142940660626,-0.17187956737795967,-0.08477053493130664
1745333215.6752942,-1.013027,0.105896,-0.025498,-0.002074,-0.0023179999999999997,0.0044529999999999995,0.24291142940660626,-0.17187956737795967,-0.08477053493130664
1745333215.6946204,-1.013515,0.105591,-0.027145,-0.002013,-0.0021349999999999997,0.0046359999999999995,0.24291142940660626,-0.17187956737795967,-0.08477053493130664
1745333215.7139032,-1.013393,0.10492,-0.025742,-0.001952,-0.002379,0.004575,0.24291142940660626,-0.17187956737795967,-0.08477053493130664
1745333215.7332237,-1.013576,0.103944,-0.025376,-0.002196,-0.00244,0.0044529999999999995,0.24291142940660626,-0.17187956737795967,-0.08477053493130664
1745333215.7526252,-1.013759,0.104798,-0.025742,-0.001952,-0.0025009999999999998,0.004697,0.24291142940660626,-0.17187956737795967,-0.08477053493130664
1745333215.7718081,-1.012783,0.106262,-0.025315,-0.002013,-0.002257,0.004575,0.24291142940660626,-0.17187956737795967,-0.08477053493130664
1745333215.7911434,-1.012844,0.105835,-0.024704999999999998,-0.0021349999999999997,-0.002379,0.004331,0.24291142940660626,-0.17187956737795967,-0.08477053493130664
1745333215.8104646,-1.013393,0.105164,-0.024522,-0.002013,-0.002379,0.004575,0.24291142940660626,-0.17187956737795967,-0.08477053493130664
1745333215.8297482,-1.014369,0.105469,-0.02562,-0.002074,-0.0023179999999999997,0.004758,0.24291142940660626,-0.17187956737795967,-0.08477053493130664
1745333215.8490865,-1.013149,0.105469,-0.02684,-0.002013,-0.002379,0.004697,0.24291142940660626,-0.17187956737795967,-0.08477053493130664
1745333215.8683167,-1.013576,0.105469,-0.026047,-0.002196,-0.0025009999999999998,0.0044529999999999995,0.24291142940660626,-0.17187956737795967,-0.08477053493130664
1745333215.8876529,-1.013454,0.105896,-0.024644,-0.0021349999999999997,-0.00244,0.004514,0.24291142940660626,-0.17187956737795967,-0.08477053493130664
1745333215.907073,-1.013271,0.106262,-0.024399999999999998,-0.0018909999999999999,-0.0023179999999999997,0.004514,0.24291142940660626,-0.17187956737795967,-0.08477053493130664
1745333215.9262567,-1.012905,0.106018,-0.024461,-0.002013,-0.002379,0.004514,0.24291142940660626,-0.17187956737795967,-0.08477053493130664
1745333215.945561,-1.013332,0.105591,-0.025436999999999998,-0.002074,-0.002379,0.004575,0.24291142940660626,-0.17187956737795967,-0.08477053493130664
1745333215.9648154,-1.013088,0.10492,-0.026535,-0.0021349999999999997,-0.0023179999999999997,0.004575,0.24291142940660626,-0.17187956737795967,-0.08477053493130664
1745333215.9841552,-1.013149,0.105347,-0.026535,-0.002257,-0.002379,0.004514,0.23969599532300498,-0.17012569424144988,-0.0811166325635779
1745333216.003661,-1.012539,0.106018,-0.024827,-0.002379,-0.002623,0.004758,0.23969599532300498,-0.17012569424144988,-0.0811166325635779
1745333216.0227513,-1.013759,0.106323,-0.024034,-0.002074,-0.0023179999999999997,0.0048189999999999995,0.23969599532300498,-0.17012569424144988,-0.0811166325635779
1745333216.0420868,-1.013454,0.105957,-0.025254,-0.0021349999999999997,-0.0023179999999999997,0.0046359999999999995,0.23969599532300498,-0.17012569424144988,-0.0811166325635779
1745333216.061377,-1.014186,0.105469,-0.026291,-0.002196,-0.002257,0.004697,0.23969599532300498,-0.17012569424144988,-0.0811166325635779
1745333216.0806901,-1.013027,0.105164,-0.027145,-0.002013,-0.002379,0.0046359999999999995,0.23969599532300498,-0.17012569424144988,-0.0811166325635779
1745333216.1000314,-1.013881,0.10577399999999999,-0.026474,-0.0018909999999999999,-0.0023179999999999997,0.004514,0.23969599532300498,-0.17012569424144988,-0.0811166325635779
1745333216.1192389,-1.012783,0.10614,-0.025193,-0.0021349999999999997,-0.00244,0.004575,0.23969599532300498,-0.17012569424144988,-0.0811166325635779
1745333216.138576,-1.013088,0.106567,-0.024278,-0.002074,-0.002562,0.004575,0.23969599532300498,-0.17012569424144988,-0.0811166325635779
1745333216.1579463,-1.013576,0.106018,-0.02379,-0.002074,-0.002257,0.004758,0.23969599532300498,-0.17012569424144988,-0.0811166325635779
1745333216.177206,-1.013698,0.10607899999999999,-0.024704999999999998,-0.002074,-0.002196,0.004575,0.23969599532300498,-0.17012569424144988,-0.0811166325635779
1745333216.196503,-1.013393,0.10553,-0.027023,-0.0018909999999999999,-0.002074,0.004697,0.23969599532300498,-0.17012569424144988,-0.0811166325635779
1745333216.2157593,-1.013393,0.105713,-0.026962,-0.002013,-0.002196,0.004758,0.23969599532300498,-0.17012569424144988,-0.0811166325635779
1745333216.2350998,-1.01321,0.10553,-0.025803,-0.001952,-0.002379,0.0046359999999999995,0.23969599532300498,-0.17012569424144988,-0.0811166325635779
1745333216.254644,-1.013881,0.105957,-0.025559,-0.002013,-0.002379,0.004575,0.23969599532300498,-0.17012569424144988,-0.0811166325635779
1745333216.2736886,-1.012295,0.105896,-0.024278,-0.002074,-0.002257,0.004575,0.23969599532300498,-0.17012569424144988,-0.0811166325635779
1745333216.2930126,-1.014308,0.106567,-0.024766,-0.001952,-0.0021349999999999997,0.004697,0.23969599532300498,-0.17012569424144988,-0.0811166325635779
1745333216.3122842,-1.012722,0.106018,-0.026108,-0.001952,-0.0023179999999999997,0.004575,0.23969599532300498,-0.17012569424144988,-0.0811166325635779
1745333216.3316154,-1.013576,0.105408,-0.026291,-0.001952,-0.0023179999999999997,0.004575,0.23969599532300498,-0.17012569424144988,-0.0811166325635779
1745333216.3509943,-1.01321,0.10437099999999999,-0.025376,-0.002074,-0.0023179999999999997,0.0046359999999999995,0.23969599532300498,-0.17012569424144988,-0.0811166325635779
1745333216.370216,-1.013515,0.105225,-0.025559,-0.0023179999999999997,-0.00244,0.004514,0.23969599532300498,-0.17012569424144988,-0.0811166325635779
1745333216.3896923,-1.013271,0.106262,-0.024949,-0.002013,-0.0023179999999999997,0.004331,0.23852674656533177,-0.16720257234726688,-0.09587839812920199
1745333216.4089108,-1.01321,0.10607899999999999,-0.024217,-0.002074,-0.00244,0.004697,0.23852674656533177,-0.16720257234726688,-0.09587839812920199
1745333216.4281678,-1.012661,0.105713,-0.025376,-0.002013,-0.002379,0.004697,0.23852674656533177,-0.16720257234726688,-0.09587839812920199
1745333216.4475036,-1.014003,0.105286,-0.026352,-0.002074,-0.00244,0.004575,0.23852674656533177,-0.16720257234726688,-0.09587839812920199
1745333216.4667368,-1.012966,0.105408,-0.026535,-0.002257,-0.002257,0.004514,0.23852674656533177,-0.16720257234726688,-0.09587839812920199
1745333216.4860694,-1.01382,0.106628,-0.025986,-0.002074,-0.0025009999999999998,0.0046359999999999995,0.23852674656533177,-0.16720257234726688,-0.09587839812920199
1745333216.5054877,-1.013881,0.106201,-0.024399999999999998,-0.0021349999999999997,-0.00244,0.004575,0.23852674656533177,-0.16720257234726688,-0.09587839812920199
1745333216.524683,-1.014186,0.106018,-0.025193,-0.0021349999999999997,-0.002257,0.004514,0.23852674656533177,-0.16720257234726688,-0.09587839812920199
1745333216.5439565,-1.013332,0.106628,-0.025742,-0.002013,-0.002257,0.004575,0.23852674656533177,-0.16720257234726688,-0.09587839812920199
1745333216.563222,-1.014186,0.106628,-0.026413,-0.001952,-0.002257,0.004575,0.23852674656533177,-0.16720257234726688,-0.09587839812920199
1745333216.5825553,-1.012539,0.104005,-0.025863999999999998,-0.001952,-0.002562,0.004392,0.23852674656533177,-0.16720257234726688,-0.09587839812920199
1745333216.6021862,-1.012783,0.105286,-0.025376,-0.002013,-0.002257,0.004575,0.23852674656533177,-0.16720257234726688,-0.09587839812920199
1745333216.6211462,-1.013088,0.106018,-0.026108,-0.002074,-0.00244,0.004575,0.23852674656533177,-0.16720257234726688,-0.09587839812920199
1745333216.640504,-1.013332,0.106567,-0.025986,-0.0018909999999999999,-0.0023179999999999997,0.004514,0.23852674656533177,-0.16720257234726688,-0.09587839812920199
1745333216.659794,-1.014491,0.105469,-0.024583,-0.0023179999999999997,-0.002623,0.0048189999999999995,0.23852674656533177,-0.16720257234726688,-0.09587839812920199
1745333216.6790977,-1.013332,0.106018,-0.025131999999999998,-0.0021349999999999997,-0.002074,0.0048189999999999995,0.23852674656533177,-0.16720257234726688,-0.09587839812920199
1745333216.6994777,-1.014064,0.10729899999999999,-0.026900999999999998,-0.002074,-0.00244,0.004514,0.23852674656533177,-0.16720257234726688,-0.09587839812920199
1745333216.7177746,-1.013271,0.105652,-0.02684,-0.0021349999999999997,-0.0023179999999999997,0.0046359999999999995,0.23852674656533177,-0.16720257234726688,-0.09587839812920199
1745333216.737077,-1.013759,0.10467599999999999,-0.024522,-0.0021349999999999997,-0.002562,0.004392,0.23852674656533177,-0.16720257234726688,-0.09587839812920199
1745333216.7564564,-1.013515,0.10577399999999999,-0.024278,-0.00183,-0.0021349999999999997,0.004514,0.23852674656533177,-0.16720257234726688,-0.09587839812920199
1745333216.7757032,-1.013454,0.106445,-0.024522,-0.002074,-0.0025009999999999998,0.0046359999999999995,0.23852674656533177,-0.16720257234726688,-0.09587839812920199
1745333216.7950177,-1.0126,0.106506,-0.025803,-0.0018909999999999999,-0.0021349999999999997,0.0046359999999999995,0.24086524408067816,-0.16135632855890092,-0.08477053493130664
1745333216.8142624,-1.013759,0.104188,-0.025254,-0.0021349999999999997,-0.0025009999999999998,0.004209,0.24086524408067816,-0.16135632855890092,-0.08477053493130664
1745333216.8336015,-1.012722,0.105225,-0.025559,-0.0021349999999999997,-0.002013,0.004514,0.24086524408067816,-0.16135632855890092,-0.08477053493130664
1745333216.8531048,-1.012661,0.105713,-0.026352,-0.0021349999999999997,-0.0023179999999999997,0.0046359999999999995,0.24086524408067816,-0.16135632855890092,-0.08477053493130664
1745333216.8721795,-1.013637,0.106567,-0.025131999999999998,-0.002196,-0.0023179999999999997,0.0046359999999999995,0.24086524408067816,-0.16135632855890092,-0.08477053493130664
1745333216.8915079,-1.01382,0.105408,-0.024399999999999998,-0.002257,-0.002623,0.004514,0.24086524408067816,-0.16135632855890092,-0.08477053493130664
1745333216.9107947,-1.013759,0.105469,-0.02562,-0.0023179999999999997,-0.002257,0.004514,0.24086524408067816,-0.16135632855890092,-0.08477053493130664
1745333216.9301243,-1.012966,0.106262,-0.026108,-0.0023179999999999997,-0.002379,0.0046359999999999995,0.24086524408067816,-0.16135632855890092,-0.08477053493130664
1745333216.949486,-1.013149,0.10577399999999999,-0.025436999999999998,-0.0023179999999999997,-0.00244,0.004697,0.24086524408067816,-0.16135632855890092,-0.08477053493130664
1745333216.968692,-1.01382,0.105286,-0.025071,-0.002379,-0.0026839999999999998,0.0044529999999999995,0.24086524408067816,-0.16135632855890092,-0.08477053493130664
1745333216.9880326,-1.014064,0.105408,-0.024522,-0.0021349999999999997,-0.0023179999999999997,0.0044529999999999995,0.24086524408067816,-0.16135632855890092,-0.08477053493130664
1745333217.00736,-1.01321,0.105896,-0.026047,-0.002196,-0.002257,0.004514,0.24086524408067816,-0.16135632855890092,-0.08477053493130664
1745333217.026637,-1.013515,0.105408,-0.026168999999999998,-0.002013,-0.0023179999999999997,0.004514,0.24086524408067816,-0.16135632855890092,-0.08477053493130664
1745333217.0459816,-1.013454,0.105042,-0.024888,-0.0021349999999999997,-0.0023179999999999997,0.004331,0.24086524408067816,-0.16135632855890092,-0.08477053493130664
1745333217.0652046,-1.013637,0.105408,-0.025436999999999998,-0.001952,-0.0021349999999999997,0.004697,0.24086524408067816,-0.16135632855890092,-0.08477053493130664
1745333217.0845425,-1.013637,0.105652,-0.026108,-0.002013,-0.002257,0.004758,0.24086524408067816,-0.16135632855890092,-0.08477053493130664
1745333217.103956,-1.013393,0.105591,-0.025071,-0.002013,-0.00244,0.004575,0.24086524408067816,-0.16135632855890092,-0.08477053493130664
1745333217.123146,-1.014003,0.105103,-0.024949,-0.0021349999999999997,-0.00244,0.0044529999999999995,0.24086524408067816,-0.16135632855890092,-0.08477053493130664
1745333217.1424537,-1.013942,0.10577399999999999,-0.025071,-0.002013,-0.0023179999999999997,0.0046359999999999995,0.24086524408067816,-0.16135632855890092,-0.08477053493130664
1745333217.1617124,-1.014186,0.105713,-0.025925,-0.00183,-0.002196,0.004575,0.24086524408067816,-0.16135632855890092,-0.08477053493130664
1745333217.18105,-1.013576,0.105713,-0.026168999999999998,-0.0018909999999999999,-0.00244,0.004575,0.24086524408067816,-0.16135632855890092,-0.08477053493130664
1745333217.2005556,-1.013637,0.105408,-0.025925,-0.002013,-0.00244,0.0046359999999999995,0.2379421221864952,-0.1639871382636656,-0.07687810581701257
1745333217.2196472,-1.012905,0.105225,-0.025863999999999998,-0.001952,-0.0025009999999999998,0.0044529999999999995,0.2379421221864952,-0.1639871382636656,-0.07687810581701257
1745333217.2389824,-1.013271,0.106811,-0.025436999999999998,-0.002074,-0.002379,0.004514,0.2379421221864952,-0.1639871382636656,-0.07687810581701257
1745333217.2582695,-1.013698,0.105896,-0.02501,-0.002013,-0.0023179999999999997,0.004514,0.2379421221864952,-0.1639871382636656,-0.07687810581701257
1745333217.2775824,-1.012783,0.10553,-0.024704999999999998,-0.002074,-0.002379,0.004575,0.2379421221864952,-0.1639871382636656,-0.07687810581701257
1745333217.2969403,-1.013515,0.106201,-0.025742,-0.002013,-0.002196,0.004575,0.2379421221864952,-0.1639871382636656,-0.07687810581701257
1745333217.3161697,-1.013759,0.105347,-0.026474,-0.002074,-0.0021349999999999997,0.0046359999999999995,0.2379421221864952,-0.1639871382636656,-0.07687810581701257
1745333217.3355074,-1.013393,0.105469,-0.025986,-0.002013,-0.00244,0.004514,0.2379421221864952,-0.1639871382636656,-0.07687810581701257
1745333217.354865,-1.01321,0.10577399999999999,-0.025803,-0.002196,-0.002257,0.0044529999999999995,0.2379421221864952,-0.1639871382636656,-0.07687810581701257
1745333217.3741436,-1.012539,0.105591,-0.024888,-0.002074,-0.00244,0.004514,0.2379421221864952,-0.1639871382636656,-0.07687810581701257
1745333217.3935513,-1.013759,0.105896,-0.024888,-0.001647,-0.0021349999999999997,0.004514,0.2379421221864952,-0.1639871382636656,-0.07687810581701257
1745333217.412791,-1.013881,0.10492,-0.025742,-0.002013,-0.00244,0.004392,0.2379421221864952,-0.1639871382636656,-0.07687810581701257
1745333217.4320803,-1.013149,0.105652,-0.026474,-0.001952,-0.002013,0.004575,0.2379421221864952,-0.1639871382636656,-0.07687810581701257
1745333217.4515464,-1.01321,0.105408,-0.026047,-0.002074,-0.002379,0.004392,0.2379421221864952,-0.1639871382636656,-0.07687810581701257
1745333217.4706864,-1.012722,0.105957,-0.025559,-0.002074,-0.002196,0.0046359999999999995,0.2379421221864952,-0.1639871382636656,-0.07687810581701257
1745333217.4900138,-1.01321,0.10553,-0.02501,-0.0018909999999999999,-0.00244,0.004514,0.2379421221864952,-0.1639871382636656,-0.07687810581701257
1745333217.5093,-1.013393,0.105408,-0.024888,-0.0018909999999999999,-0.002196,0.0046359999999999995,0.2379421221864952,-0.1639871382636656,-0.07687810581701257
1745333217.5286021,-1.013881,0.10577399999999999,-0.025498,-0.001952,-0.0023179999999999997,0.004697,0.2379421221864952,-0.1639871382636656,-0.07687810581701257
1745333217.548,-1.01382,0.105896,-0.025193,-0.0021349999999999997,-0.002257,0.004697,0.2379421221864952,-0.1639871382636656,-0.07687810581701257
1745333217.567191,-1.012966,0.106018,-0.025498,-0.002013,-0.002623,0.004575,0.2379421221864952,-0.1639871382636656,-0.07687810581701257
1745333217.5865278,-1.012844,0.105469,-0.025863999999999998,-0.002013,-0.0023179999999999997,0.004575,0.2379421221864952,-0.1639871382636656,-0.07687810581701257
1745333217.6085286,-1.013515,0.105652,-0.026595999999999998,-0.002074,-0.002379,0.0044529999999999995,0.23881905875475007,-0.16720257234726688,-0.0822858813212511
1745333217.625234,-1.01443,0.105347,-0.025986,-0.0021349999999999997,-0.002379,0.0046359999999999995,0.23881905875475007,-0.16720257234726688,-0.0822858813212511
1745333217.6474743,-1.013576,0.105103,-0.024766,-0.002074,-0.002379,0.004575,0.23881905875475007,-0.16720257234726688,-0.0822858813212511
1745333217.663864,-1.012783,0.106628,-0.025559,-0.002257,-0.00244,0.004758,0.23881905875475007,-0.16720257234726688,-0.0822858813212511
1745333217.6849592,-1.013027,0.10607899999999999,-0.025559,-0.002074,-0.0025009999999999998,0.0048189999999999995,0.23881905875475007,-0.16720257234726688,-0.0822858813212511
1745333217.7039363,-1.013149,0.104737,-0.025863999999999998,-0.002013,-0.002379,0.004697,0.23881905875475007,-0.16720257234726688,-0.0822858813212511
1745333217.72182,-1.013942,0.10492,-0.024888,-0.002074,-0.002257,0.004575,0.23881905875475007,-0.16720257234726688,-0.0822858813212511
1745333217.7434092,-1.012539,0.106018,-0.024704999999999998,-0.002013,-0.002196,0.0048189999999999995,0.23881905875475007,-0.16720257234726688,-0.0822858813212511
1745333217.7625248,-1.013088,0.10668899999999999,-0.025436999999999998,-0.0021349999999999997,-0.0023179999999999997,0.0046359999999999995,0.23881905875475007,-0.16720257234726688,-0.0822858813212511
1745333217.780714,-1.01382,0.10553,-0.025559,-0.0021349999999999997,-0.0025009999999999998,0.004392,0.23881905875475007,-0.16720257234726688,-0.0822858813212511
1745333217.8012042,-1.013332,0.105652,-0.024766,-0.002196,-0.0025009999999999998,0.004575,0.23881905875475007,-0.16720257234726688,-0.0822858813212511
1745333217.8205054,-1.01382,0.105591,-0.025863999999999998,-0.0021349999999999997,-0.0025009999999999998,0.004575,0.23881905875475007,-0.16720257234726688,-0.0822858813212511
1745333217.8401248,-1.013393,0.105957,-0.026535,-0.002196,-0.0021349999999999997,0.004575,0.23881905875475007,-0.16720257234726688,-0.0822858813212511
1745333217.8591316,-1.013149,0.105164,-0.025193,-0.002196,-0.002623,0.004575,0.23881905875475007,-0.16720257234726688,-0.0822858813212511
1745333217.877809,-1.013515,0.105286,-0.025803,-0.0021349999999999997,-0.002379,0.004392,0.23881905875475007,-0.16720257234726688,-0.0822858813212511
1745333217.8977613,-1.013271,0.105103,-0.025863999999999998,-0.002074,-0.00244,0.0046359999999999995,0.23881905875475007,-0.16720257234726688,-0.0822858813212511
1745333217.9149652,-1.013698,0.10607899999999999,-0.025559,-0.0021349999999999997,-0.002257,0.0046359999999999995,0.23881905875475007,-0.16720257234726688,-0.0822858813212511
1745333217.9368095,-1.013454,0.105225,-0.025254,-0.002074,-0.0025009999999999998,0.004575,0.23881905875475007,-0.16720257234726688,-0.0822858813212511
1745333217.9556954,-1.0126,0.104737,-0.025131999999999998,-0.002074,-0.00244,0.004758,0.23881905875475007,-0.16720257234726688,-0.0822858813212511
1745333217.9748075,-1.013088,0.10498099999999999,-0.026352,-0.002013,-0.002379,0.004575,0.23881905875475007,-0.16720257234726688,-0.0822858813212511
1745333217.9943833,-1.01321,0.10492,-0.026168999999999998,-0.002074,-0.002257,0.0046359999999999995,0.23881905875475007,-0.16720257234726688,-0.0822858813212511
1745333218.011557,-1.013759,0.105591,-0.024339,-0.002013,-0.002562,0.0044529999999999995,0.23881905875475007,-0.16720257234726688,-0.0822858813212511
1745333218.0331433,-1.013393,0.10614,-0.02501,-0.002013,-0.002379,0.0046359999999999995,0.24115755627009647,-0.1607717041800643,-0.08433206664717918
1745333218.050743,-1.013332,0.106872,-0.026595999999999998,-0.002013,-0.002379,0.004514,0.24115755627009647,-0.1607717041800643,-0.08433206664717918
1745333218.0715802,-1.013881,0.105713,-0.026962,-0.0018909999999999999,-0.002379,0.004514,0.24115755627009647,-0.1607717041800643,-0.08433206664717918
1745333218.0909681,-1.01321,0.104859,-0.026657,-0.002013,-0.002379,0.004392,0.24115755627009647,-0.1607717041800643,-0.08433206664717918
1745333218.1081445,-1.013576,0.105469,-0.02623,-0.002013,-0.00244,0.004392,0.24115755627009647,-0.1607717041800643,-0.08433206664717918
1745333218.1298425,-1.013454,0.105957,-0.024766,-0.002196,-0.002379,0.004575,0.24115755627009647,-0.1607717041800643,-0.08433206664717918
1745333218.1467543,-1.012417,0.10675,-0.024583,-0.002196,-0.0023179999999999997,0.004575,0.24115755627009647,-0.1607717041800643,-0.08433206664717918
1745333218.1683276,-1.01321,0.10668899999999999,-0.024339,-0.002013,-0.002379,0.004575,0.24115755627009647,-0.1607717041800643,-0.08433206664717918
1745333218.187257,-1.0126,0.105408,-0.025131999999999998,-0.002196,-0.002379,0.004514,0.24115755627009647,-0.1607717041800643,-0.08433206664717918
1745333218.2047286,-1.012356,0.105469,-0.026900999999999998,-0.002074,-0.0023179999999999997,0.0046359999999999995,0.24115755627009647,-0.1607717041800643,-0.08433206664717918
1745333218.2263196,-1.012478,0.105896,-0.026291,-0.0018909999999999999,-0.002379,0.004575,0.24115755627009647,-0.1607717041800643,-0.08433206664717918
1745333218.2433636,-1.013454,0.105652,-0.025315,-0.002013,-0.002379,0.0044529999999999995,0.24115755627009647,-0.1607717041800643,-0.08433206664717918
1745333218.264953,-1.013149,0.105164,-0.024704999999999998,-0.001952,-0.0023179999999999997,0.0042699999999999995,0.24115755627009647,-0.1607717041800643,-0.08433206664717918
1745333218.2819672,-1.013759,0.10699399999999999,-0.025376,-0.002013,-0.002257,0.004575,0.24115755627009647,-0.1607717041800643,-0.08433206664717918
1745333218.3013282,-1.013332,0.106201,-0.025193,-0.002013,-0.0023179999999999997,0.0046359999999999995,0.24115755627009647,-0.1607717041800643,-0.08433206664717918
1745333218.3228376,-1.013515,0.105469,-0.025498,-0.001952,-0.0025009999999999998,0.004697,0.24115755627009647,-0.1607717041800643,-0.08433206664717918
1745333218.3421347,-1.013698,0.10437099999999999,-0.024888,-0.0018909999999999999,-0.00244,0.0044529999999999995,0.24115755627009647,-0.1607717041800643,-0.08433206664717918
1745333218.3617957,-1.013332,0.10431,-0.02562,-0.001952,-0.002379,0.0046359999999999995,0.24115755627009647,-0.1607717041800643,-0.08433206664717918
1745333218.3807642,-1.013759,0.105408,-0.025803,-0.002013,-0.002257,0.004331,0.24115755627009647,-0.1607717041800643,-0.08433206664717918
1745333218.398498,-1.013393,0.105164,-0.024217,-0.001952,-0.002257,0.004331,0.24115755627009647,-0.1607717041800643,-0.08433206664717918
1745333218.4195323,-1.012661,0.105103,-0.024888,-0.0021349999999999997,-0.002257,0.0046359999999999995,0.24115755627009647,-0.1607717041800643,-0.08433206664717918
1745333218.4388251,-1.012722,0.105835,-0.024704999999999998,-0.00183,-0.002257,0.0046359999999999995,0.22858813212510962,-0.1628178895059924,-0.08506284712072494
1745333218.4585242,-1.013027,0.106018,-0.025498,-0.0018909999999999999,-0.0023179999999999997,0.004392,0.22858813212510962,-0.1628178895059924,-0.08506284712072494
1745333218.4775498,-1.013454,0.105286,-0.025315,-0.002074,-0.0023179999999999997,0.004514,0.22858813212510962,-0.1628178895059924,-0.08506284712072494
1745333218.4953396,-1.013637,0.105835,-0.025131999999999998,-0.002013,-0.0021349999999999997,0.004331,0.22858813212510962,-0.1628178895059924,-0.08506284712072494
1745333218.5162857,-1.013942,0.105164,-0.025559,-0.002013,-0.0021349999999999997,0.004575,0.22858813212510962,-0.1628178895059924,-0.08506284712072494
1745333218.533476,-1.012844,0.105408,-0.025436999999999998,-0.0021349999999999997,-0.002257,0.0046359999999999995,0.22858813212510962,-0.1628178895059924,-0.08506284712072494
1745333218.556294,-1.013393,0.10553,-0.024766,-0.002196,-0.0025009999999999998,0.004941,0.22858813212510962,-0.1628178895059924,-0.08506284712072494
1745333218.5752363,-1.013637,0.107055,-0.026352,-0.002074,-0.002257,0.0048189999999999995,0.22858813212510962,-0.1628178895059924,-0.08506284712072494
1745333218.5926447,-1.013393,0.105469,-0.025315,-0.002013,-0.0025009999999999998,0.004758,0.22858813212510962,-0.1628178895059924,-0.08506284712072494
1745333218.6139781,-1.013515,0.10498099999999999,-0.025863999999999998,-0.002196,-0.002379,0.0046359999999999995,0.22858813212510962,-0.1628178895059924,-0.08506284712072494
1745333218.6311269,-1.01382,0.105591,-0.025376,-0.002013,-0.00244,0.0046359999999999995,0.22858813212510962,-0.1628178895059924,-0.08506284712072494
1745333218.6528287,-1.013088,0.105957,-0.025071,-0.002013,-0.00244,0.004575,0.22858813212510962,-0.1628178895059924,-0.08506284712072494
1745333218.671749,-1.013637,0.105347,-0.02501,-0.002074,-0.0023179999999999997,0.0046359999999999995,0.22858813212510962,-0.1628178895059924,-0.08506284712072494
1745333218.6892786,-1.013698,0.105286,-0.024766,-0.001952,-0.002379,0.004514,0.22858813212510962,-0.1628178895059924,-0.08506284712072494
1745333218.7111006,-1.013698,0.105286,-0.024278,-0.002257,-0.0025009999999999998,0.004575,0.22858813212510962,-0.1628178895059924,-0.08506284712072494
1745333218.7277627,-1.013576,0.106445,-0.024827,-0.001952,-0.00244,0.0046359999999999995,0.22858813212510962,-0.1628178895059924,-0.08506284712072494
1745333218.7500007,-1.013454,0.106018,-0.025986,-0.001952,-0.002257,0.004575,0.22858813212510962,-0.1628178895059924,-0.08506284712072494
1745333218.7663698,-1.013088,0.105469,-0.026047,-0.002196,-0.002257,0.004392,0.22858813212510962,-0.1628178895059924,-0.08506284712072494
1745333218.7868748,-1.013637,0.105896,-0.025315,-0.002257,-0.002257,0.004575,0.22858813212510962,-0.1628178895059924,-0.08506284712072494
1745333218.806932,-1.013698,0.105713,-0.024461,-0.0023179999999999997,-0.0025009999999999998,0.004514,0.22858813212510962,-0.1628178895059924,-0.08506284712072494
1745333218.824343,-1.01443,0.106201,-0.025436999999999998,-0.0021349999999999997,-0.002257,0.004514,0.22858813212510962,-0.1628178895059924,-0.08506284712072494
1745333218.8459733,-1.013576,0.10553,-0.025315,-0.002074,-0.002257,0.004514,0.24086524408067816,-0.1622332651271558,-0.08330897398421515
1745333218.862931,-1.013942,0.10607899999999999,-0.025376,-0.001952,-0.002196,0.0044529999999999995,0.24086524408067816,-0.1622332651271558,-0.08330897398421515
1745333218.8831127,-1.013576,0.10577399999999999,-0.024888,-0.001769,-0.00244,0.004575,0.24086524408067816,-0.1622332651271558,-0.08330897398421515
1745333218.903766,-1.013454,0.10577399999999999,-0.025559,-0.002074,-0.0023179999999999997,0.004697,0.24086524408067816,-0.1622332651271558,-0.08330897398421515
1745333218.9230483,-1.014369,0.105652,-0.026168999999999998,-0.002013,-0.002379,0.004514,0.24086524408067816,-0.1622332651271558,-0.08330897398421515
1745333218.942542,-1.013027,0.10614,-0.026108,-0.001952,-0.002379,0.004575,0.24086524408067816,-0.1622332651271558,-0.08330897398421515
1745333218.9616394,-1.014125,0.105469,-0.024644,-0.002013,-0.002562,0.004392,0.24086524408067816,-0.1622332651271558,-0.08330897398421515
1745333218.9802547,-1.013088,0.10607899999999999,-0.024766,-0.002013,-0.002257,0.0046359999999999995,0.24086524408067816,-0.1622332651271558,-0.08330897398421515
1745333219.0003493,-1.014064,0.105347,-0.024766,-0.002013,-0.0023179999999999997,0.0046359999999999995,0.24086524408067816,-0.1622332651271558,-0.08330897398421515
1745333219.0175102,-1.013027,0.105408,-0.025254,-0.002196,-0.002379,0.004575,0.24086524408067816,-0.1622332651271558,-0.08330897398421515
1745333219.039249,-1.013149,0.10498099999999999,-0.026108,-0.00183,-0.002379,0.004514,0.24086524408067816,-0.1622332651271558,-0.08330897398421515
1745333219.0582309,-1.01504,0.106018,-0.024461,-0.0023179999999999997,-0.00244,0.0046359999999999995,0.24086524408067816,-0.1622332651271558,-0.08330897398421515
1745333219.0769465,-1.012966,0.10675,-0.024827,-0.002257,-0.0023179999999999997,0.004575,0.24086524408067816,-0.1622332651271558,-0.08330897398421515
1745333219.096899,-1.013515,0.10614,-0.025254,-0.0021349999999999997,-0.002257,0.004575,0.24086524408067816,-0.1622332651271558,-0.08330897398421515
1745333219.1140926,-1.012844,0.106445,-0.026291,-0.002196,-0.0021349999999999997,0.004392,0.24086524408067816,-0.1622332651271558,-0.08330897398421515
1745333219.1357787,-1.013576,0.104859,-0.026168999999999998,-0.002074,-0.0023179999999999997,0.0046359999999999995,0.24086524408067816,-0.1622332651271558,-0.08330897398421515
1745333219.15364,-1.013637,0.10577399999999999,-0.025315,-0.002074,-0.002257,0.004575,0.24086524408067816,-0.1622332651271558,-0.08330897398421515
1745333219.1738167,-1.013271,0.105164,-0.025131999999999998,-0.002013,-0.0023179999999999997,0.004575,0.24086524408067816,-0.1622332651271558,-0.08330897398421515
1745333219.1935015,-1.01443,0.10607899999999999,-0.025131999999999998,-0.002074,-0.002257,0.004514,0.24086524408067816,-0.1622332651271558,-0.08330897398421515
1745333219.210704,-1.013759,0.106018,-0.025559,-0.002196,-0.0023179999999999997,0.004575,0.24086524408067816,-0.1622332651271558,-0.08330897398421515
1745333219.2323112,-1.013942,0.105042,-0.025498,-0.002257,-0.0023179999999999997,0.004697,0.24086524408067816,-0.1622332651271558,-0.08330897398421515
1745333219.2493286,-1.01199,0.10577399999999999,-0.025193,-0.0021349999999999997,-0.00244,0.0046359999999999995,0.2318035662087109,-0.1666179479684303,-0.08374744226834259
1745333219.2709105,-1.013759,0.105225,-0.02501,-0.002074,-0.0025009999999999998,0.004514,0.2318035662087109,-0.1666179479684303,-0.08374744226834259
1745333219.2901013,-1.012417,0.105225,-0.025559,-0.001952,-0.00244,0.004575,0.2318035662087109,-0.1666179479684303,-0.08374744226834259
1745333219.3073306,-1.014552,0.105896,-0.02684,-0.002074,-0.0023179999999999997,0.0046359999999999995,0.2318035662087109,-0.1666179479684303,-0.08374744226834259
1745333219.3289657,-1.012722,0.10638399999999999,-0.025376,-0.0021349999999999997,-0.0023179999999999997,0.0046359999999999995,0.2318035662087109,-0.1666179479684303,-0.08374744226834259
1745333219.3459597,-1.013942,0.10614,-0.024583,-0.002074,-0.002623,0.004575,0.2318035662087109,-0.1666179479684303,-0.08374744226834259
1745333219.3676026,-1.0126,0.104615,-0.023972999999999998,-0.0023179999999999997,-0.0025009999999999998,0.0044529999999999995,0.2318035662087109,-0.1666179479684303,-0.08374744226834259
1745333219.3846064,-1.014064,0.106323,-0.024704999999999998,-0.0021349999999999997,-0.002074,0.004697,0.2318035662087109,-0.1666179479684303,-0.08374744226834259
1745333219.4049168,-1.01382,0.10675,-0.025315,-0.0021349999999999997,-0.002257,0.004514,0.2318035662087109,-0.1666179479684303,-0.08374744226834259
1745333219.425505,-1.01321,0.105957,-0.023851,-0.002196,-0.0026839999999999998,0.0044529999999999995,0.2318035662087109,-0.1666179479684303,-0.08374744226834259
1745333219.442625,-1.013637,0.104432,-0.024888,-0.0021349999999999997,-0.00244,0.0046359999999999995,0.2318035662087109,-0.1666179479684303,-0.08374744226834259
1745333219.4644456,-1.012722,0.105469,-0.02623,-0.001952,-0.0021349999999999997,0.004758,0.2318035662087109,-0.1666179479684303,-0.08374744226834259
1745333219.4812584,-1.013088,0.105652,-0.026779,-0.0021349999999999997,-0.002257,0.004758,0.2318035662087109,-0.1666179479684303,-0.08374744226834259
1745333219.5015507,-1.014613,0.106018,-0.024399999999999998,-0.002196,-0.0021349999999999997,0.0046359999999999995,0.2318035662087109,-0.1666179479684303,-0.08374744226834259
1745333219.5204792,-1.01382,0.104859,-0.024888,-0.002074,-0.0021349999999999997,0.0046359999999999995,0.2318035662087109,-0.1666179479684303,-0.08374744226834259
1745333219.5413806,-1.01321,0.106018,-0.025071,-0.002013,-0.0021349999999999997,0.004697,0.2318035662087109,-0.1666179479684303,-0.08374744226834259
1745333219.5623856,-1.013454,0.104798,-0.026474,-0.002013,-0.0025009999999999998,0.0044529999999999995,0.2318035662087109,-0.1666179479684303,-0.08374744226834259
1745333219.5815325,-1.013454,0.104737,-0.025803,-0.00183,-0.0023179999999999997,0.004514,0.2318035662087109,-0.1666179479684303,-0.08374744226834259
1745333219.5987518,-1.014064,0.105896,-0.025254,-0.001769,-0.002257,0.004575,0.2318035662087109,-0.1666179479684303,-0.08374744226834259
1745333219.621422,-1.012234,0.106323,-0.026413,-0.0018909999999999999,-0.0021349999999999997,0.004697,0.2318035662087109,-0.1666179479684303,-0.08374744226834259
1745333219.6387022,-1.014369,0.105408,-0.023972999999999998,-0.002196,-0.0025009999999999998,0.0046359999999999995,0.2318035662087109,-0.1666179479684303,-0.08374744226834259
1745333219.6589644,-1.01321,0.105347,-0.02501,-0.001952,-0.002074,0.004514,0.23881905875475007,-0.16691026015784857,-0.08608593978368898
1745333219.6781209,-1.013698,0.105225,-0.02562,-0.0021349999999999997,-0.002196,0.004575,0.23881905875475007,-0.16691026015784857,-0.08608593978368898
1745333219.6953347,-1.013027,0.10577399999999999,-0.025986,-0.002074,-0.002196,0.004514,0.23881905875475007,-0.16691026015784857,-0.08608593978368898
1745333219.7169404,-1.01443,0.105103,-0.025803,-0.002074,-0.002379,0.004331,0.23881905875475007,-0.16691026015784857,-0.08608593978368898
1745333219.7339497,-1.01321,0.106201,-0.026047,-0.002013,-0.002257,0.0046359999999999995,0.23881905875475007,-0.16691026015784857,-0.08608593978368898
1745333219.7555363,-1.012905,0.106262,-0.026168999999999998,-0.0021349999999999997,-0.00244,0.004575,0.23881905875475007,-0.16691026015784857,-0.08608593978368898
1745333219.7747536,-1.01382,0.106567,-0.024644,-0.002196,-0.0025009999999999998,0.0046359999999999995,0.23881905875475007,-0.16691026015784857,-0.08608593978368898
1745333219.7919388,-1.013454,0.105408,-0.024827,-0.002074,-0.00244,0.0044529999999999995,0.23881905875475007,-0.16691026015784857,-0.08608593978368898
1745333219.8135455,-1.014064,0.10431,-0.025131999999999998,-0.002074,-0.002257,0.004392,0.23881905875475007,-0.16691026015784857,-0.08608593978368898
1745333219.830562,-1.012783,0.105957,-0.025803,-0.001952,-0.002074,0.004514,0.23881905875475007,-0.16691026015784857,-0.08608593978368898
1745333219.8521397,-1.013576,0.10668899999999999,-0.023912,-0.0021349999999999997,-0.00244,0.004575,0.23881905875475007,-0.16691026015784857,-0.08608593978368898
1745333219.869153,-1.012905,0.105652,-0.024399999999999998,-0.0023179999999999997,-0.002379,0.004514,0.23881905875475007,-0.16691026015784857,-0.08608593978368898
1745333219.8885653,-1.012966,0.105225,-0.024766,-0.0021349999999999997,-0.00244,0.004575,0.23881905875475007,-0.16691026015784857,-0.08608593978368898
1745333219.9100685,-1.013393,0.105896,-0.02501,-0.001952,-0.0023179999999999997,0.0048189999999999995,0.23881905875475007,-0.16691026015784857,-0.08608593978368898
1745333219.9271731,-1.012478,0.10577399999999999,-0.025925,-0.0018909999999999999,-0.0021349999999999997,0.0046359999999999995,0.23881905875475007,-0.16691026015784857,-0.08608593978368898
1745333219.9488246,-1.012417,0.105835,-0.024888,-0.0018909999999999999,-0.0023179999999999997,0.004575,0.23881905875475007,-0.16691026015784857,-0.08608593978368898
