Timestamp,Accel X,Accel Y,Accel Z,Gyro X,Gyro Y,Gyro Z,Magneto X,Magneto Y,Magneto Z
1745333511.3790665,-1.013881,0.109678,-0.02562,-0.00244,-0.003965,0.00488,0.2379421221864952,-0.1648640748319205,-0.08535515931014323
1745333511.3821762,-1.025044,0.106872,-0.02562,-0.0015249999999999999,-0.002989,0.004209,0.2379421221864952,-0.1648640748319205,-0.08535515931014323
1745333511.3850665,-1.025288,0.093879,-0.023119,-0.0026839999999999998,-0.002379,0.003904,0.2379421221864952,-0.1648640748319205,-0.08535515931014323
1745333511.3882396,-1.014918,0.11102,-0.025863999999999998,-0.002013,-0.0017079999999999999,0.004026,0.24028061970184156,-0.1636948260742473,-0.08667056416252558
1745333511.391665,-1.003816,0.108641,-0.023667999999999998,-0.001403,-0.000915,0.003538,0.24028061970184156,-0.1636948260742473,-0.08667056416252558
1745333511.3947508,-1.003511,0.106628,-0.029402,-0.001586,-0.00122,0.0048189999999999995,0.24028061970184156,-0.1636948260742473,-0.08667056416252558
1745333511.397619,-1.009245,0.109678,-0.028975,-0.001403,-0.002562,0.005063,0.24028061970184156,-0.1636948260742473,-0.08667056416252558
1745333511.4009876,-1.010526,0.11041,-0.026718,-0.0028669999999999998,-0.0042699999999999995,0.004514,0.24028061970184156,-0.1636948260742473,-0.08667056416252558
1745333511.404329,-1.024007,0.109861,-0.023667999999999998,-0.0021349999999999997,-0.004209,0.004697,0.24028061970184156,-0.1636948260742473,-0.08667056416252558
1745333511.407464,-1.0246169999999999,0.111813,-0.019947,-0.001586,-0.00122,0.004758,0.24028061970184156,-0.1636948260742473,-0.08667056416252558
1745333511.4107604,-1.005585,0.10790899999999999,-0.024949,-0.0021349999999999997,-0.000244,0.005307,0.24028061970184156,-0.1636948260742473,-0.08667056416252558
1745333511.4139676,-1.006561,0.109556,-0.031537,-0.002013,-0.00244,0.004209,0.23735749780765858,-0.16720257234726688,-0.08403975445776089
1745333511.417168,-1.010892,0.108214,-0.026535,-0.002013,-0.003904,0.0032329999999999998,0.23735749780765858,-0.16720257234726688,-0.08403975445776089
1745333511.4200997,-1.015467,0.10790899999999999,-0.027694,-0.002257,-0.0025009999999999998,0.004758,0.23735749780765858,-0.16720257234726688,-0.08403975445776089
1745333511.423005,-1.013942,0.106933,-0.023972999999999998,-0.001769,-0.0028669999999999998,0.005063,0.23735749780765858,-0.16720257234726688,-0.08403975445776089
1745333511.4259262,-1.018944,0.109861,-0.026047,-0.002074,-0.00183,0.004941,0.23735749780765858,-0.16720257234726688,-0.08403975445776089
1745333511.4288225,-1.008452,0.105713,-0.022814,-0.002257,-0.001586,0.004697,0.23735749780765858,-0.16720257234726688,-0.08403975445776089
1745333511.4316924,-1.00955,0.10699399999999999,-0.030195,-0.001769,-0.001769,0.00488,0.23735749780765858,-0.16720257234726688,-0.08403975445776089
1745333511.4345737,-1.004609,0.104249,-0.025315,-0.00244,-0.00366,0.0042699999999999995,0.23735749780765858,-0.16720257234726688,-0.08403975445776089
1745333511.4374516,-1.009306,0.108641,-0.025254,-0.002074,-0.00183,0.004514,0.23823443437591346,-0.17012569424144988,-0.080239695995323
1745333511.44037,-1.022177,0.105225,-0.026962,-0.001403,-0.0028669999999999998,0.004575,0.23823443437591346,-0.17012569424144988,-0.080239695995323
1745333511.443681,-1.020652,0.108641,-0.022509,-0.0023179999999999997,-0.0025009999999999998,0.0046359999999999995,0.23823443437591346,-0.17012569424144988,-0.080239695995323
1745333511.4470527,-1.021445,0.108824,-0.022875,-0.000976,-0.002196,0.004575,0.23823443437591346,-0.17012569424144988,-0.080239695995323
1745333511.4499757,-1.01199,0.107787,-0.0305,-0.000976,-0.00061,0.004697,0.23823443437591346,-0.17012569424144988,-0.080239695995323
1745333511.4528768,-1.003511,0.10668899999999999,-0.028243,-0.00244,-0.001098,0.00488,0.23823443437591346,-0.17012569424144988,-0.080239695995323
1745333511.4557455,-1.010099,0.10675,-0.027755,-0.0025009999999999998,-0.00183,0.0048189999999999995,0.23823443437591346,-0.17012569424144988,-0.080239695995323
1745333511.4586053,-1.012112,0.106445,-0.029646,-0.0013419999999999999,-0.0035989999999999998,0.003843,0.23823443437591346,-0.17012569424144988,-0.080239695995323
1745333511.4615,-1.018151,0.10858,-0.028487,-0.00244,-0.002745,0.0044529999999999995,0.23823443437591346,-0.17012569424144988,-0.080239695995323
1745333511.4643304,-1.009428,0.111691,-0.021106,-0.00244,-0.0030499999999999998,0.004392,0.2329728149663841,-0.17246419175679625,-0.08710903244665302
1745333511.467144,-1.014918,0.112423,-0.023363,-0.001952,-0.0025009999999999998,0.005856,0.2329728149663841,-0.17246419175679625,-0.08710903244665302
1745333511.4699767,-1.010709,0.111508,-0.023912,-0.001281,-0.000976,0.0051849999999999995,0.2329728149663841,-0.17246419175679625,-0.08710903244665302
1745333511.4729974,-1.007842,0.109251,-0.027389,-0.0018909999999999999,-0.0011589999999999999,0.004026,0.2329728149663841,-0.17246419175679625,-0.08710903244665302
1745333511.476394,-1.006317,0.111691,-0.02867,-0.002013,-0.003111,0.0050019999999999995,0.2329728149663841,-0.17246419175679625,-0.08710903244665302
1745333511.479579,-1.012905,0.11041,-0.032513,-0.001769,-0.003294,0.005063,0.2329728149663841,-0.17246419175679625,-0.08710903244665302
1745333511.4824443,-1.015223,0.11114199999999999,-0.022021,-0.0017079999999999999,-0.0026839999999999998,0.0048189999999999995,0.2329728149663841,-0.17246419175679625,-0.08710903244665302
1745333511.4852781,-1.018273,0.110898,-0.026474,-0.0023179999999999997,-0.00183,0.0048189999999999995,0.2329728149663841,-0.17246419175679625,-0.08710903244665302
1745333511.488107,-1.014735,0.11193499999999999,-0.02928,-0.001647,-0.002562,0.0044529999999999995,0.2329728149663841,-0.17246419175679625,-0.08710903244665302
1745333511.491087,-1.00833,0.109678,-0.027267,-0.0023179999999999997,-0.0017079999999999999,0.004514,0.233849751534639,-0.16720257234726688,-0.08506284712072494
1745333511.494101,-1.011868,0.108031,-0.028121,-0.002196,-0.0021349999999999997,0.005795,0.233849751534639,-0.16720257234726688,-0.08506284712072494
1745333511.496954,-1.009977,0.111691,-0.023241,-0.002745,-0.001586,0.0042699999999999995,0.233849751534639,-0.16720257234726688,-0.08506284712072494
1745333511.4997687,-1.009794,0.108763,-0.034465,-0.002257,-0.001586,0.003843,0.233849751534639,-0.16720257234726688,-0.08506284712072494
1745333511.5026238,-1.016199,0.110715,-0.028426,-0.003111,-0.004758,0.0048189999999999995,0.233849751534639,-0.16720257234726688,-0.08506284712072494
1745333511.505809,-1.025959,0.109495,-0.022265,-0.0028669999999999998,-0.005063,0.003904,0.233849751534639,-0.16720257234726688,-0.08506284712072494
1745333511.5092592,-1.01016,0.10858,-0.020801,-0.002562,0.000244,0.00549,0.233849751534639,-0.16720257234726688,-0.08506284712072494
1745333511.5122473,-1.005707,0.10675,-0.024583,-0.001586,-0.0021349999999999997,0.006405,0.233849751534639,-0.16720257234726688,-0.08506284712072494
1745333511.5150764,-1.006744,0.102663,-0.027938,-0.001952,-0.002074,0.00549,0.24174218064893305,-0.16691026015784857,-0.08579362759427069
1745333511.5179033,-1.017541,0.106933,-0.030195,-0.0025009999999999998,-0.00488,0.004697,0.24174218064893305,-0.16691026015784857,-0.08579362759427069
1745333511.5207253,-1.019371,0.103273,-0.019337,-0.00183,-0.0053679999999999995,0.004209,0.24174218064893305,-0.16691026015784857,-0.08579362759427069
1745333511.523541,-1.012722,0.105713,-0.02257,-0.001586,-0.0008539999999999999,0.0040869999999999995,0.24174218064893305,-0.16691026015784857,-0.08579362759427069
1745333511.5263963,-1.009733,0.102297,-0.030987999999999998,-0.002074,-0.000183,0.0057339999999999995,0.24174218064893305,-0.16691026015784857,-0.08579362759427069
1745333511.529227,-1.009611,0.104005,-0.026474,-0.00183,-0.002013,0.0050019999999999995,0.24174218064893305,-0.16691026015784857,-0.08579362759427069
1745333511.5320778,-1.011136,0.10406599999999999,-0.027084,-0.002074,-0.000793,0.00366,0.24174218064893305,-0.16691026015784857,-0.08579362759427069
1745333511.534945,-1.008269,0.104737,-0.025131999999999998,-0.001037,-0.0013419999999999999,0.0042699999999999995,0.24174218064893305,-0.16691026015784857,-0.08579362759427069
1745333511.538266,-1.006073,0.103639,-0.02867,-0.001586,-0.000732,0.005856,0.24174218064893305,-0.16691026015784857,-0.08579362759427069
1745333511.5415716,-1.023519,0.108641,-0.032574,-0.0025009999999999998,-0.003721,0.0053679999999999995,0.2332651271558024,-0.1666179479684303,-0.08783981292019877
1745333511.5444455,-1.03029,0.107787,-0.022753,-0.001403,-0.000976,0.00488,0.2332651271558024,-0.1666179479684303,-0.08783981292019877
1745333511.5472698,-1.014674,0.10699399999999999,-0.025925,-0.0013419999999999999,0.0,0.005063,0.2332651271558024,-0.1666179479684303,-0.08783981292019877
1745333511.5500968,-1.009855,0.106445,-0.032452,-0.001647,-0.001098,0.005307,0.2332651271558024,-0.1666179479684303,-0.08783981292019877
1745333511.5529134,-1.011075,0.111081,-0.031354,-0.00183,-0.003721,0.004331,0.2332651271558024,-0.1666179479684303,-0.08783981292019877
1745333511.5557218,-1.013759,0.108275,-0.027267,-0.002013,-0.002074,0.003538,0.2332651271558024,-0.1666179479684303,-0.08783981292019877
1745333511.55854,-1.00894,0.11102,-0.024827,-0.0015249999999999999,-0.0017079999999999999,0.004209,0.2332651271558024,-0.1666179479684303,-0.08783981292019877
1745333511.5614018,-1.005646,0.108641,-0.030073,-0.002806,-0.0026839999999999998,0.0046359999999999995,0.2332651271558024,-0.1666179479684303,-0.08783981292019877
1745333511.564234,-1.007293,0.109556,-0.025498,-0.0025009999999999998,-0.003538,0.005307,0.2332651271558024,-0.1666179479684303,-0.08783981292019877
1745333511.567215,-1.016382,0.111325,-0.025193,-0.002257,-0.0046359999999999995,0.004575,0.2323881905875475,-0.17363344051446947,-0.08184741303712365
1745333511.5705738,-1.011929,0.108702,-0.020252,-0.002196,-0.00183,0.004514,0.2323881905875475,-0.17363344051446947,-0.08184741303712365
1745333511.5737488,-1.008513,0.111386,-0.024339,-0.002257,-0.00122,0.0055509999999999995,0.2323881905875475,-0.17363344051446947,-0.08184741303712365
1745333511.5766187,-1.020164,0.110105,-0.029402,-0.0023179999999999997,-0.001769,0.005063,0.2323881905875475,-0.17363344051446947,-0.08184741303712365
1745333511.5794358,-1.023153,0.109861,-0.025559,-0.002074,-0.002074,0.0048189999999999995,0.2323881905875475,-0.17363344051446947,-0.08184741303712365
1745333511.5822587,-1.021384,0.110105,-0.016958,-0.001403,-0.0028669999999999998,0.0042699999999999995,0.2323881905875475,-0.17363344051446947,-0.08184741303712365
1745333511.5850773,-1.011502,0.10919,-0.023729,-0.002623,-0.000366,0.0048189999999999995,0.2323881905875475,-0.17363344051446947,-0.08184741303712365
1745333511.5878859,-1.009184,0.110166,-0.025681,-0.001952,-0.001769,0.004148,0.2323881905875475,-0.17363344051446947,-0.08184741303712365
1745333511.5907195,-1.014003,0.10797,-0.027145,-0.002196,-0.0042699999999999995,0.0037819999999999998,0.2323881905875475,-0.17363344051446947,-0.09675533469745688
1745333511.5935938,-1.012844,0.108397,-0.02257,-0.002562,-0.004514,0.00244,0.23121894182987432,-0.16691026015784857,-0.09675533469745688
1745333511.5964901,-1.007232,0.109556,-0.020007999999999998,-0.0015249999999999999,-0.0028669999999999998,0.0035989999999999998,0.23121894182987432,-0.16691026015784857,-0.09675533469745688
1745333511.5995693,-1.015467,0.10760399999999999,-0.022814,-0.002257,-0.003843,0.005246,0.23121894182987432,-0.16691026015784857,-0.09675533469745688
1745333511.6028194,-1.020164,0.108702,-0.022203999999999998,-0.002562,-0.003477,0.005307,0.23121894182987432,-0.16691026015784857,-0.09675533469745688
1745333511.606012,-1.024007,0.107543,-0.020374,-0.000976,-0.002013,0.005124,0.23121894182987432,-0.16691026015784857,-0.09675533469745688
1745333511.6088817,-1.014369,0.10858,-0.02013,-0.001464,-0.000915,0.0046359999999999995,0.23121894182987432,-0.16691026015784857,-0.09675533469745688
1745333511.6117384,-1.009794,0.108946,-0.02257,-0.002257,-0.00122,0.005307,0.23121894182987432,-0.16691026015784857,-0.09675533469745688
1745333511.614573,-1.006439,0.107482,-0.023119,-0.002379,-0.001586,0.005246,0.23121894182987432,-0.16691026015784857,-0.09675533469745688
1745333511.6173973,-1.016443,0.107665,-0.028243,-0.0015249999999999999,-0.001098,0.0042699999999999995,0.2303420052616194,-0.1660333235895937,-0.09427068108740135
1745333511.620252,-1.007537,0.10919,-0.022753,-0.001403,-0.000305,0.0048189999999999995,0.2303420052616194,-0.1660333235895937,-0.09427068108740135
1745333511.6230676,-1.00833,0.110105,-0.026291,-0.001281,-0.000366,0.004758,0.2303420052616194,-0.1660333235895937,-0.09427068108740135
1745333511.6258867,-1.008147,0.11053199999999999,-0.028182,-0.002196,-0.0021349999999999997,0.0055509999999999995,0.2303420052616194,-0.1660333235895937,-0.09427068108740135
1745333511.628739,-1.012234,0.113582,-0.033123,-0.0013419999999999999,-0.003172,0.0051849999999999995,0.2303420052616194,-0.1660333235895937,-0.09427068108740135
1745333511.631905,-1.010587,0.111874,-0.027023,-0.001952,-0.001769,0.004148,0.2303420052616194,-0.1660333235895937,-0.09427068108740135
1745333511.6353903,-1.013576,0.112362,-0.028304,-0.002623,-0.002074,0.005429,0.2303420052616194,-0.1660333235895937,-0.09427068108740135
1745333511.6383781,-1.013698,0.111203,-0.028304,-0.0015249999999999999,-0.003172,0.0050019999999999995,0.2303420052616194,-0.1660333235895937,-0.09427068108740135
1745333511.641229,-1.015894,0.1098,-0.029096999999999998,-0.001647,-0.00244,0.004026,0.2303420052616194,-0.1660333235895937,-0.09427068108740135
1745333511.6441014,-1.016321,0.109678,-0.028914,-0.002562,-0.002806,0.0035989999999999998,0.24466530254311605,-0.1607717041800643,-0.08740134463607133
1745333511.6469243,-1.014674,0.11102,-0.029707,-0.0025009999999999998,-0.001647,0.0048189999999999995,0.24466530254311605,-0.1607717041800643,-0.08740134463607133
1745333511.649752,-1.01321,0.10467599999999999,-0.027938,-0.002074,-0.002013,0.0042699999999999995,0.24466530254311605,-0.1607717041800643,-0.08740134463607133
1745333511.6525779,-1.014369,0.108763,-0.030195,-0.00244,-0.002013,0.0051849999999999995,0.24466530254311605,-0.1607717041800643,-0.08740134463607133
1745333511.6553884,-1.013088,0.104493,-0.028791999999999998,-0.002196,-0.0018909999999999999,0.004575,0.24466530254311605,-0.1607717041800643,-0.08740134463607133
1745333511.658208,-1.010526,0.108946,-0.029341,-0.0013419999999999999,-0.0017079999999999999,0.00488,0.24466530254311605,-0.1607717041800643,-0.08740134463607133
1745333511.6610477,-1.010343,0.110166,-0.024766,-0.0018909999999999999,-0.0023179999999999997,0.004758,0.24466530254311605,-0.1607717041800643,-0.08740134463607133
1745333511.6642685,-1.015406,0.106506,-0.027816,-0.0017079999999999999,-0.003477,0.00488,0.24466530254311605,-0.1607717041800643,-0.08740134463607133
1745333511.6676083,-1.015772,0.105103,-0.020374,-0.001769,-0.0030499999999999998,0.003965,0.24466530254311605,-0.1607717041800643,-0.09602455422391114
1745333511.670595,-1.014369,0.107726,-0.022875,-0.001647,-0.002562,0.0050019999999999995,0.24466530254311605,-0.1619409529377375,-0.09602455422391114
1745333511.6734424,-1.007171,0.105469,-0.02501,-0.0013419999999999999,-0.002623,0.004392,0.24466530254311605,-0.1619409529377375,-0.09602455422391114
1745333511.6763043,-1.029131,0.10607899999999999,-0.025559,-0.0030499999999999998,-0.002379,0.004697,0.24466530254311605,-0.1619409529377375,-0.09602455422391114
1745333511.6791286,-1.015772,0.10492,-0.023485,-0.002745,-0.002745,0.004331,0.24466530254311605,-0.1619409529377375,-0.09602455422391114
1745333511.6819508,-1.015284,0.105347,-0.029523999999999998,-0.002379,-0.002989,0.004331,0.24466530254311605,-0.1619409529377375,-0.09602455422391114
1745333511.6847687,-1.016199,0.105347,-0.028914,-0.0034159999999999998,-0.0023179999999999997,0.0040869999999999995,0.24466530254311605,-0.1619409529377375,-0.09602455422391114
1745333511.6875947,-1.01504,0.106445,-0.02379,-0.001403,-0.001647,0.00488,0.24466530254311605,-0.1619409529377375,-0.09602455422391114
1745333511.6904788,-1.015711,0.10577399999999999,-0.024522,-0.001647,-0.001098,0.0048189999999999995,0.24466530254311605,-0.1619409529377375,-0.09602455422391114
1745333511.693362,-1.013881,0.10668899999999999,-0.028121,-0.002013,-0.0013419999999999999,0.00488,0.24466530254311605,-0.1619409529377375,-0.0932475884244373
1745333511.6967127,-1.008452,0.108824,-0.025436999999999998,-0.001037,-0.0011589999999999999,0.005307,0.24028061970184156,-0.16954106986261328,-0.0932475884244373
1745333511.6999865,-1.013271,0.10961699999999999,-0.031964,-0.00122,-0.0021349999999999997,0.005246,0.24028061970184156,-0.16954106986261328,-0.0932475884244373
1745333511.7028775,-1.020042,0.109739,-0.02867,-0.002806,-0.003477,0.003843,0.24028061970184156,-0.16954106986261328,-0.0932475884244373
1745333511.705719,-1.016565,0.108641,-0.027206,-0.002196,-0.0025009999999999998,0.004514,0.24028061970184156,-0.16954106986261328,-0.0932475884244373
1745333511.708547,-1.010465,0.109068,-0.023485,-0.0030499999999999998,-0.0025009999999999998,0.004026,0.24028061970184156,-0.16954106986261328,-0.0932475884244373
1745333511.7113893,-1.015406,0.11022699999999999,-0.030073,-0.0025009999999999998,-0.002928,0.004331,0.24028061970184156,-0.16954106986261328,-0.0932475884244373
1745333511.7142215,-1.011014,0.112118,-0.023241,-0.00183,-0.002562,0.0048189999999999995,0.24028061970184156,-0.16954106986261328,-0.0932475884244373
1745333511.7170446,-1.016199,0.110471,-0.028243,-0.001769,-0.002196,0.003843,0.24028061970184156,-0.16954106986261328,-0.0932475884244373
1745333511.719854,-1.014308,0.110044,-0.02684,-0.002806,-0.001586,0.005246,0.233849751534639,-0.1601870798012277,-0.08462437883659749
1745333511.7226772,-1.007598,0.111386,-0.025498,-0.001647,-0.0028669999999999998,0.0042699999999999995,0.233849751534639,-0.1601870798012277,-0.08462437883659749
1745333511.725686,-1.012173,0.110776,-0.020374,-0.0017079999999999999,-0.00244,0.005124,0.233849751534639,-0.1601870798012277,-0.08462437883659749
1745333511.729009,-1.010831,0.108885,-0.023851,-0.002196,-0.0028669999999999998,0.0037819999999999998,0.233849751534639,-0.1601870798012277,-0.08462437883659749
1745333511.7322388,-1.014674,0.111081,-0.022692,-0.0017079999999999999,-0.001647,0.004331,0.233849751534639,-0.1601870798012277,-0.08462437883659749
1745333511.735095,-1.006622,0.108519,-0.022203999999999998,-0.002257,-0.002745,0.0046359999999999995,0.233849751534639,-0.1601870798012277,-0.08462437883659749
1745333511.7379277,-1.01016,0.112789,-0.023424,-0.0011589999999999999,-0.0018909999999999999,0.004575,0.233849751534639,-0.1601870798012277,-0.08462437883659749
1745333511.7407558,-1.018029,0.110959,-0.030195,-0.0018909999999999999,-0.00183,0.004941,0.233849751534639,-0.1601870798012277,-0.08462437883659749
1745333511.7436056,-1.01626,0.108153,-0.023851,-0.002013,-0.002013,0.00366,0.233849751534639,-0.1601870798012277,-0.08462437883659749
1745333511.746438,-1.03029,0.109251,-0.025498,-0.002013,-0.0025009999999999998,0.004331,0.24086524408067816,-0.163402513884829,-0.09017831043554517
1745333511.7492592,-1.0126,0.109373,-0.017446,-0.000366,-0.0023179999999999997,0.0042699999999999995,0.24086524408067816,-0.163402513884829,-0.09017831043554517
1745333511.7520885,-1.013515,0.109983,-0.021533,-0.00244,-0.00244,0.0044529999999999995,0.24086524408067816,-0.163402513884829,-0.09017831043554517
1745333511.7549314,-1.013576,0.108275,-0.017385,-0.001281,-0.002562,0.004026,0.24086524408067816,-0.163402513884829,-0.09017831043554517
1745333511.7581396,-1.003328,0.106262,-0.022143,-0.0015249999999999999,-0.002257,0.00488,0.24086524408067816,-0.163402513884829,-0.09017831043554517
1745333511.7614782,-1.009794,0.105896,-0.027632999999999998,-0.0023179999999999997,-0.002379,0.005856,0.24086524408067816,-0.163402513884829,-0.09017831043554517
1745333511.7644615,-1.014186,0.109434,-0.026595999999999998,-0.0023179999999999997,-0.002989,0.0050019999999999995,0.24086524408067816,-0.163402513884829,-0.09017831043554517
1745333511.7672951,-1.016443,0.108641,-0.026718,-0.001769,-0.002623,0.005124,0.24086524408067816,-0.163402513884829,-0.09017831043554517
1745333511.7701392,-1.013454,0.10919,-0.028059999999999998,-0.001586,-0.0017079999999999999,0.004575,0.24086524408067816,-0.163402513884829,-0.08652440806781643
1745333511.7729626,-1.015528,0.105652,-0.028304,-0.002745,-0.002379,0.004392,0.2323881905875475,-0.16924875767319497,-0.08652440806781643
1745333511.775824,-1.012417,0.10797,-0.027206,-0.002013,-0.002562,0.005429,0.2323881905875475,-0.16924875767319497,-0.08652440806781643
1745333511.778758,-1.017053,0.10790899999999999,-0.024034,-0.0017079999999999999,-0.001769,0.004026,0.2323881905875475,-0.16924875767319497,-0.08652440806781643
1745333511.7816038,-1.015833,0.106018,-0.031659,-0.002074,-0.0015249999999999999,0.0037819999999999998,0.2323881905875475,-0.16924875767319497,-0.08652440806781643
1745333511.7844322,-1.009001,0.110288,-0.02562,-0.0018909999999999999,-0.001952,0.003843,0.2323881905875475,-0.16924875767319497,-0.08652440806781643
1745333511.7872906,-1.008208,0.109434,-0.028304,-0.002745,-0.002013,0.004392,0.2323881905875475,-0.16924875767319497,-0.08652440806781643
1745333511.7906215,-1.014125,0.112057,-0.027206,-0.002074,-0.002806,0.0040869999999999995,0.2323881905875475,-0.16924875767319497,-0.08652440806781643
1745333511.793889,-1.013515,0.107665,-0.026108,-0.001464,-0.00244,0.003904,0.2323881905875475,-0.16924875767319497,-0.08652440806781643
1745333511.7967525,-1.011014,0.106506,-0.026595999999999998,-0.00122,-0.002013,0.004697,0.2320958783981292,-0.16515638702133878,-0.08403975445776089
1745333511.7995746,-1.014857,0.10931199999999999,-0.034221,-0.001647,-0.002196,0.0046359999999999995,0.2320958783981292,-0.16515638702133878,-0.08403975445776089
1745333511.802398,-1.005585,0.10919,-0.026047,-0.0023179999999999997,-0.003111,0.00488,0.2320958783981292,-0.16515638702133878,-0.08403975445776089
1745333511.805215,-1.014064,0.108946,-0.030073,-0.0021349999999999997,-0.002013,0.004514,0.2320958783981292,-0.16515638702133878,-0.08403975445776089
1745333511.8080559,-1.015589,0.105286,-0.026962,-0.0015249999999999999,-0.002074,0.0053679999999999995,0.2320958783981292,-0.16515638702133878,-0.08403975445776089
1745333511.810897,-1.016138,0.108214,-0.031171,-0.001647,-0.002745,0.003965,0.2320958783981292,-0.16515638702133878,-0.08403975445776089
1745333511.8137248,-1.014064,0.10992199999999999,-0.030927,-0.001952,-0.0032329999999999998,0.004941,0.2320958783981292,-0.16515638702133878,-0.08403975445776089
1745333511.816547,-1.01565,0.10668899999999999,-0.024278,-0.002013,-0.003721,0.005124,0.2320958783981292,-0.16515638702133878,-0.08403975445776089
1745333511.81953,-1.017968,0.110654,-0.019337,-0.002562,-0.002623,0.0053679999999999995,0.2320958783981292,-0.16515638702133878,-0.08403975445776089
1745333511.8228343,-1.014491,0.10699399999999999,-0.022265,-0.001647,-0.000366,0.0050019999999999995,0.2347266881028939,-0.16954106986261328,-0.09047062262496346
1745333511.8260267,-1.007781,0.109434,-0.025254,-0.001281,-0.0032329999999999998,0.005246,0.2347266881028939,-0.16954106986261328,-0.09047062262496346
1745333511.8290496,-1.010465,0.105469,-0.020007999999999998,-0.0018909999999999999,-0.003477,0.004697,0.2347266881028939,-0.16954106986261328,-0.09047062262496346
1745333511.8319802,-1.00162,0.109434,-0.022265,-0.0023179999999999997,-0.002623,0.005124,0.2347266881028939,-0.16954106986261328,-0.09047062262496346
1745333511.8348248,-1.011807,0.106811,-0.021167,-0.002074,-0.001647,0.0037819999999999998,0.2347266881028939,-0.16954106986261328,-0.09047062262496346
1745333511.8376462,-1.007415,0.10797,-0.019947,-0.001037,-0.002623,0.005246,0.2347266881028939,-0.16954106986261328,-0.09047062262496346
1745333511.8404677,-1.011807,0.107848,-0.028243,-0.0023179999999999997,-0.001403,0.004575,0.2347266881028939,-0.16954106986261328,-0.09047062262496346
1745333511.843318,-1.018944,0.108641,-0.027755,-0.0021349999999999997,-0.003111,0.004514,0.2347266881028939,-0.16954106986261328,-0.09047062262496346
1745333511.8461516,-1.017419,0.12486699999999999,-0.022875,-0.0017079999999999999,-0.0015249999999999999,0.004697,0.2347266881028939,-0.16954106986261328,-0.09047062262496346
1745333511.8490233,-1.010282,0.109556,-0.022021,-0.0018909999999999999,-0.0011589999999999999,0.004575,0.24261911721718796,-0.16954106986261328,-0.08944752996199941
1745333511.8522773,-1.010892,0.111569,-0.023363,-0.0021349999999999997,-0.002013,0.0050019999999999995,0.24261911721718796,-0.16954106986261328,-0.08944752996199941
1745333511.855637,-1.017785,0.108153,-0.023607,-0.001037,-0.001769,0.004331,0.24261911721718796,-0.16954106986261328,-0.08944752996199941
1745333511.858619,-1.01748,0.109495,-0.030439,-0.002257,-0.0017079999999999999,0.003904,0.24261911721718796,-0.16954106986261328,-0.08944752996199941
1745333511.8614702,-1.01016,0.113521,-0.027877,-0.001647,-0.0028669999999999998,0.004148,0.24261911721718796,-0.16954106986261328,-0.08944752996199941
1745333511.8643034,-1.012356,0.11406999999999999,-0.025131999999999998,-0.0026839999999999998,-0.001769,0.0057339999999999995,0.24261911721718796,-0.16954106986261328,-0.08944752996199941
1745333511.867119,-1.0126,0.111325,-0.024156,-0.002196,-0.002928,0.004392,0.24261911721718796,-0.16954106986261328,-0.08944752996199941
1745333511.8699381,-1.015711,0.113826,-0.026535,-0.001647,-0.0028669999999999998,0.0040869999999999995,0.24261911721718796,-0.16954106986261328,-0.08944752996199941
1745333511.8727553,-1.011075,0.112179,-0.024034,-0.002074,-0.002013,0.00488,0.24261911721718796,-0.16895644548377667,-0.09090909090909091
1745333511.8755693,-1.009977,0.112911,-0.022509,-0.002074,-0.0021349999999999997,0.005429,0.2341420637240573,-0.16895644548377667,-0.09090909090909091
1745333511.8784177,-1.019493,0.110105,-0.025071,-0.001586,-0.0040869999999999995,0.004514,0.2341420637240573,-0.16895644548377667,-0.09090909090909091
1745333511.8812933,-1.017968,0.108824,-0.020435,-0.001586,-0.002989,0.004697,0.2341420637240573,-0.16895644548377667,-0.09090909090909091
1745333511.8845499,-1.014857,0.107238,-0.020801,-0.002074,-0.001952,0.0050019999999999995,0.2341420637240573,-0.16895644548377667,-0.09090909090909091
1745333511.8878083,-1.006256,0.108092,-0.026352,-0.00122,-0.001647,0.00488,0.2341420637240573,-0.16895644548377667,-0.09090909090909091
1745333511.8907921,-1.013332,0.104615,-0.032574,-0.0023179999999999997,-0.003355,0.004941,0.2341420637240573,-0.16895644548377667,-0.09090909090909091
1745333511.8936608,-1.018029,0.108641,-0.022875,-0.002745,-0.002989,0.0040869999999999995,0.2341420637240573,-0.16895644548377667,-0.09090909090909091
1745333511.896498,-1.014247,0.107177,-0.029402,-0.001281,-0.001464,0.0050019999999999995,0.2341420637240573,-0.16895644548377667,-0.09090909090909091
1745333511.8993163,-1.008269,0.106628,-0.023363,-0.002623,-0.002013,0.004331,0.2318035662087109,-0.1601870798012277,-0.08959368605670856
1745333511.9021401,-1.000217,0.105896,-0.026718,-0.00244,-0.003172,0.004697,0.2318035662087109,-0.1601870798012277,-0.08959368605670856
1745333511.9049568,-1.014369,0.10675,-0.023119,-0.0023179999999999997,-0.002806,0.004026,0.2318035662087109,-0.1601870798012277,-0.08959368605670856
1745333511.907767,-1.010709,0.107543,-0.022631,-0.001464,-0.002379,0.004514,0.2318035662087109,-0.1601870798012277,-0.08959368605670856
1745333511.9105918,-1.012783,0.109861,-0.026900999999999998,-0.001952,-0.002013,0.004941,0.2318035662087109,-0.1601870798012277,-0.08959368605670856
1745333511.9135988,-1.0126,0.105896,-0.030683,-0.0021349999999999997,-0.001098,0.0051849999999999995,0.2318035662087109,-0.1601870798012277,-0.08959368605670856
1745333511.9169247,-1.019371,0.10790899999999999,-0.030927,-0.0025009999999999998,-0.002989,0.003965,0.2318035662087109,-0.1601870798012277,-0.08959368605670856
1745333511.920128,-1.010526,0.11041,-0.023912,-0.002379,-0.0025009999999999998,0.0051849999999999995,0.2318035662087109,-0.1601870798012277,-0.08959368605670856
1745333511.9230165,-1.005951,0.108275,-0.022692,-0.000976,-0.0018909999999999999,0.004575,0.2318035662087109,-0.1601870798012277,-0.08959368605670856
1745333511.9258494,-1.012112,0.107543,-0.037759,-0.0017079999999999999,-0.003355,0.005673,0.2323881905875475,-0.163402513884829,-0.08886290558316282
1745333511.9287133,-1.011197,0.109251,-0.02684,-0.0021349999999999997,-0.00244,0.004758,0.2323881905875475,-0.163402513884829,-0.08886290558316282
1745333511.9315283,-1.008635,0.108214,-0.024644,-0.002196,-0.001403,0.00488,0.2323881905875475,-0.163402513884829,-0.08886290558316282
1745333511.934369,-1.014186,0.107787,-0.029585,-0.003111,-0.000732,0.004331,0.2323881905875475,-0.163402513884829,-0.08886290558316282
1745333511.9371858,-1.01565,0.108214,-0.028975,-0.0028669999999999998,-0.002013,0.004575,0.2323881905875475,-0.163402513884829,-0.08886290558316282
1745333511.940027,-1.017724,0.122427,-0.02623,-0.00244,-0.0034159999999999998,0.005246,0.2323881905875475,-0.163402513884829,-0.08886290558316282
1745333511.942864,-1.021567,0.110349,-0.023851,-0.00244,-0.002806,0.0040869999999999995,0.2323881905875475,-0.163402513884829,-0.08886290558316282
1745333511.9460502,-1.006134,0.105042,-0.02501,-0.001769,0.000244,0.0048189999999999995,0.2323881905875475,-0.163402513884829,-0.08886290558316282
1745333511.9494183,-1.012539,0.109068,-0.039345,-0.002074,-0.0037819999999999998,0.0032329999999999998,0.2323881905875475,-0.163402513884829,-0.08930137386729027
1745333511.9524055,-1.017297,0.112057,-0.028364999999999998,-0.002196,-0.004331,0.002989,0.23969599532300498,-0.1639871382636656,-0.08930137386729027
1745333511.9552727,-1.014064,0.111203,-0.030195,-0.0018909999999999999,-0.002928,0.003965,0.23969599532300498,-0.1639871382636656,-0.08930137386729027
1745333511.9581273,-1.006012,0.102785,-0.020191,-0.002562,-0.001464,0.006405,0.23969599532300498,-0.1639871382636656,-0.08930137386729027
1745333511.960996,-1.011746,0.109129,-0.028791999999999998,-0.0023179999999999997,-0.00183,0.006039,0.23969599532300498,-0.1639871382636656,-0.08930137386729027
1745333511.9638171,-1.016016,0.10729899999999999,-0.029096999999999998,-0.003172,-0.0030499999999999998,0.005063,0.23969599532300498,-0.1639871382636656,-0.08930137386729027
1745333511.9666445,-1.020225,0.109861,-0.023607,-0.00244,-0.002379,0.00366,0.23969599532300498,-0.1639871382636656,-0.08930137386729027
1745333511.9694636,-1.014369,0.10699399999999999,-0.027145,-0.00244,-0.001586,0.0057339999999999995,0.23969599532300498,-0.1639871382636656,-0.08930137386729027
1745333511.97229,-1.009489,0.108214,-0.021533,-0.001769,-0.001098,0.005307,0.23969599532300498,-0.1639871382636656,-0.08930137386729027
1745333511.9751494,-1.016626,0.108214,-0.023241,-0.0013419999999999999,-0.0025009999999999998,0.004941,0.23969599532300498,-0.1639871382636656,-0.08754750073078048
1745333511.978462,-1.02358,0.108824,-0.025193,-0.00183,-0.003355,0.003538,0.2347266881028939,-0.1645717626425022,-0.08754750073078048
1745333511.9817488,-1.013637,0.108153,-0.025254,-0.00183,-0.0015249999999999999,0.00366,0.2347266881028939,-0.1645717626425022,-0.08754750073078048
1745333511.9846091,-1.011563,0.108702,-0.031049,-0.002806,-0.002562,0.0046359999999999995,0.2347266881028939,-0.1645717626425022,-0.08754750073078048
1745333511.9874334,-1.012417,0.110471,-0.029219,-0.0021349999999999997,-0.0037819999999999998,0.006161,0.2347266881028939,-0.1645717626425022,-0.08754750073078048
1745333511.990258,-1.018639,0.107787,-0.025742,-0.002074,-0.004026,0.004331,0.2347266881028939,-0.1645717626425022,-0.08754750073078048
1745333511.9930797,-1.012051,0.110105,-0.015799,-0.002074,-0.000793,0.0035989999999999998,0.2347266881028939,-0.1645717626425022,-0.08754750073078048
1745333511.9958956,-1.011258,0.121817,-0.025376,-0.000793,-0.0021349999999999997,0.0050019999999999995,0.2347266881028939,-0.1645717626425022,-0.08754750073078048
1745333511.9987216,-1.016321,0.109129,-0.021594,-0.001952,-0.002806,0.005978,0.2347266881028939,-0.1645717626425022,-0.08754750073078048
1745333512.0015395,-1.020896,0.107726,-0.030378,-0.001769,-0.00244,0.004575,0.2318035662087109,-0.16544869921075708,-0.09076293481438176
1745333512.0043695,-1.017053,0.105957,-0.025376,-0.0015249999999999999,-0.000976,0.0044529999999999995,0.2318035662087109,-0.16544869921075708,-0.09076293481438176
1745333512.0073473,-1.010404,0.110776,-0.027755,-0.0015249999999999999,-0.001281,0.0046359999999999995,0.2318035662087109,-0.16544869921075708,-0.09076293481438176
1745333512.0106676,-1.016748,0.108519,-0.030439,-0.002257,-0.002562,0.004575,0.2318035662087109,-0.16544869921075708,-0.09076293481438176
1745333512.0138872,-1.016687,0.108031,-0.023485,-0.00183,-0.002745,0.0042699999999999995,0.2318035662087109,-0.16544869921075708,-0.09076293481438176
1745333512.0167553,-1.017724,0.10797,-0.027694,-0.0013419999999999999,-0.001647,0.0050019999999999995,0.2318035662087109,-0.16544869921075708,-0.09076293481438176
1745333512.0195735,-1.0065,0.108763,-0.025803,-0.00183,-0.00122,0.003904,0.2318035662087109,-0.16544869921075708,-0.09076293481438176
1745333512.0223951,-1.008696,0.109373,-0.032085999999999996,-0.0008539999999999999,-0.002745,0.005063,0.2318035662087109,-0.16544869921075708,-0.09076293481438176
1745333512.025216,-1.015833,0.11022699999999999,-0.032025,-0.00183,-0.002928,0.004758,0.2318035662087109,-0.16544869921075708,-0.09076293481438176
1745333512.0280836,-1.015467,0.112057,-0.029219,-0.002989,-0.0018909999999999999,0.0057339999999999995,0.22624963460976322,-0.16720257234726688,-0.08550131540485238
1745333512.0309048,-1.014491,0.1098,-0.02623,-0.001952,-0.002074,0.005124,0.22624963460976322,-0.16720257234726688,-0.08550131540485238
1745333512.0337243,-1.008025,0.111996,-0.022082,6.1e-05,-0.00244,0.004575,0.22624963460976322,-0.16720257234726688,-0.08550131540485238
1745333512.0365672,-1.015711,0.109129,-0.028914,-0.00183,-0.0032329999999999998,0.004941,0.22624963460976322,-0.16720257234726688,-0.08550131540485238
1745333512.0395482,-1.015528,0.11041,-0.023546,-0.0028669999999999998,-0.0026839999999999998,0.004148,0.22624963460976322,-0.16720257234726688,-0.08550131540485238
1745333512.0428932,-1.012051,0.107055,-0.027877,-0.002928,-0.001037,0.004331,0.22624963460976322,-0.16720257234726688,-0.08550131540485238
1745333512.0460753,-1.009916,0.105042,-0.024339,-0.00183,-0.002013,0.004941,0.22624963460976322,-0.16720257234726688,-0.08550131540485238
1745333512.0489807,-1.014613,0.108702,-0.024827,-0.00244,-0.0040869999999999995,0.0053679999999999995,0.22624963460976322,-0.16720257234726688,-0.08550131540485238
1745333512.0518036,-1.01931,0.10675,-0.026047,-0.002013,-0.003355,0.005063,0.22624963460976322,-0.16720257234726688,-0.08550131540485238
1745333512.0546257,-1.00711,0.107177,-0.021777,-0.000732,-0.0008539999999999999,0.004941,0.2356036246711488,-0.1648640748319205,-0.08491669102601579
1745333512.0574503,-1.009672,0.104432,-0.028487,-0.002074,-0.0015249999999999999,0.00549,0.2356036246711488,-0.1648640748319205,-0.08491669102601579
1745333512.0603094,-1.009184,0.108519,-0.021045,-0.0025009999999999998,-0.0018909999999999999,0.005246,0.2356036246711488,-0.1648640748319205,-0.08491669102601579
1745333512.0631294,-1.016382,0.108824,-0.026047,-0.002074,-0.0026839999999999998,0.004941,0.2356036246711488,-0.1648640748319205,-0.08491669102601579
1745333512.06595,-1.015467,0.104798,-0.021106,-0.00122,-0.002013,0.0040869999999999995,0.2356036246711488,-0.1648640748319205,-0.08491669102601579
1745333512.0687726,-1.006866,0.11041,-0.026291,-0.002196,-0.002013,0.0035989999999999998,0.2356036246711488,-0.1648640748319205,-0.08491669102601579
1745333512.071746,-1.010587,0.10729899999999999,-0.02745,-0.0023179999999999997,-0.0023179999999999997,0.0051849999999999995,0.2356036246711488,-0.1648640748319205,-0.08491669102601579
1745333512.075132,-1.022177,0.108397,-0.030195,-0.0017079999999999999,-0.002623,0.004514,0.2356036246711488,-0.1648640748319205,-0.08491669102601579
1745333512.0783072,-1.013576,0.108519,-0.024888,-0.0021349999999999997,-0.000793,0.003843,0.233849751534639,-0.17129494299912307,-0.08740134463607133
1745333512.08117,-1.010831,0.108519,-0.028731,-0.0025009999999999998,-0.001586,0.004331,0.233849751534639,-0.17129494299912307,-0.08740134463607133
1745333512.0840018,-1.010343,0.110471,-0.027877,-0.001647,-0.002196,0.004758,0.233849751534639,-0.17129494299912307,-0.08740134463607133
1745333512.0868208,-1.013881,0.107787,-0.024522,-0.002928,-0.003172,0.005063,0.233849751534639,-0.17129494299912307,-0.08740134463607133
1745333512.0896406,-1.015467,0.109434,-0.028426,-0.001952,-0.0018909999999999999,0.0035989999999999998,0.233849751534639,-0.17129494299912307,-0.08740134463607133
1745333512.0925245,-1.009245,0.107543,-0.024278,-0.002074,-0.001403,0.0050019999999999995,0.233849751534639,-0.17129494299912307,-0.08740134463607133
1745333512.0953863,-1.009733,0.106201,-0.029585,-0.002989,-0.002074,0.004392,0.233849751534639,-0.17129494299912307,-0.08740134463607133
1745333512.0982199,-1.015284,0.109434,-0.029646,-0.002623,-0.003477,0.00488,0.233849751534639,-0.17129494299912307,-0.08740134463607133
1745333512.101054,-1.014247,0.107665,-0.025193,-0.001769,-0.003111,0.0046359999999999995,0.233849751534639,-0.17129494299912307,-0.08740134463607133
1745333512.1052313,-1.01382,0.108641,-0.022448,-0.0025009999999999998,-0.0032329999999999998,0.003294,0.23852674656533177,-0.16807950891552179,-0.08418591055247004
1745333512.1086264,-1.013637,0.111325,-0.026108,-0.0026839999999999998,-0.002562,0.0055509999999999995,0.23852674656533177,-0.16807950891552179,-0.08418591055247004
1745333512.1115003,-1.018029,0.109861,-0.02684,-0.0015249999999999999,-0.0023179999999999997,0.004514,0.23852674656533177,-0.16807950891552179,-0.08418591055247004
1745333512.1143491,-1.012661,0.109556,-0.02257,-0.00244,-0.00183,0.003965,0.23852674656533177,-0.16807950891552179,-0.08418591055247004
1745333512.1171803,-1.010038,0.10607899999999999,-0.026535,-0.00244,-0.001769,0.004514,0.23852674656533177,-0.16807950891552179,-0.08418591055247004
1745333512.1200151,-1.006561,0.108153,-0.024034,-0.0030499999999999998,-0.0032329999999999998,0.004758,0.23852674656533177,-0.16807950891552179,-0.08418591055247004
1745333512.122832,-1.015284,0.106262,-0.024827,-0.001769,-0.002745,0.0048189999999999995,0.23852674656533177,-0.16807950891552179,-0.08418591055247004
1745333512.1256547,-1.01687,0.110349,-0.02196,-0.002013,-0.003294,0.004209,0.23852674656533177,-0.16807950891552179,-0.08418591055247004
1745333512.1285107,-1.013759,0.105408,-0.022875,-0.0030499999999999998,-0.002745,0.004209,0.23852674656533177,-0.16807950891552179,-0.08418591055247004
1745333512.1313353,-1.010709,0.103944,-0.023241,-0.002379,-0.001464,0.004697,0.23677287342882197,-0.1625255773165741,-0.08360128617363344
1745333512.134347,-1.008635,0.107421,-0.023424,-0.002074,-0.002806,0.0046359999999999995,0.23677287342882197,-0.1625255773165741,-0.08360128617363344
1745333512.1376622,-1.0270569999999999,0.107055,-0.026291,-0.0023179999999999997,-0.0026839999999999998,0.004697,0.23677287342882197,-0.1625255773165741,-0.08360128617363344
1745333512.1408498,-1.016992,0.12193899999999999,-0.021899,-0.001769,-0.0023179999999999997,0.003721,0.23677287342882197,-0.1625255773165741,-0.08360128617363344
1745333512.1437185,-1.013027,0.107787,-0.026291,-0.0018909999999999999,-0.0015249999999999999,0.0048189999999999995,0.23677287342882197,-0.1625255773165741,-0.08360128617363344
1745333512.1465716,-1.014979,0.112789,-0.021594,-0.002013,-0.0018909999999999999,0.005063,0.23677287342882197,-0.1625255773165741,-0.08360128617363344
1745333512.1494017,-1.014003,0.110166,-0.025986,-0.002989,-0.000793,0.004392,0.23677287342882197,-0.1625255773165741,-0.08360128617363344
1745333512.1522236,-1.015101,0.111508,-0.025193,-0.0023179999999999997,-0.002013,0.0037819999999999998,0.23677287342882197,-0.1625255773165741,-0.08360128617363344
1745333512.155034,-1.014369,0.109068,-0.029523999999999998,-0.002379,-0.0017079999999999999,0.0046359999999999995,0.2326805027769658,-0.16691026015784857,-0.08710903244665302
1745333512.157857,-1.008452,0.109495,-0.031964,-0.0015249999999999999,-0.002074,0.005063,0.2326805027769658,-0.16691026015784857,-0.08710903244665302
1745333512.160677,-1.007964,0.112301,-0.024095,-0.00183,-0.0030499999999999998,0.005063,0.2326805027769658,-0.16691026015784857,-0.08710903244665302
1745333512.1634934,-1.01321,0.10900699999999999,-0.026900999999999998,-0.0025009999999999998,-0.0030499999999999998,0.004575,0.2326805027769658,-0.16691026015784857,-0.08710903244665302
1745333512.1664937,-1.009001,0.110715,-0.021533,-0.001952,-0.002562,0.003294,0.2326805027769658,-0.16691026015784857,-0.08710903244665302
1745333512.1698368,-1.017236,0.107482,-0.032085999999999996,-0.002745,-0.00244,0.005307,0.2326805027769658,-0.16691026015784857,-0.08710903244665302
1745333512.1730607,-1.013454,0.108092,-0.028487,-0.001647,-0.0030499999999999998,0.0050019999999999995,0.2326805027769658,-0.16691026015784857,-0.08710903244665302
1745333512.1758983,-1.01382,0.108885,-0.029707,-0.002074,-0.0018909999999999999,0.004514,0.2326805027769658,-0.16691026015784857,-0.08710903244665302
1745333512.1787653,-1.015467,0.108763,-0.028059999999999998,-0.002989,-0.0025009999999999998,0.0030499999999999998,0.2326805027769658,-0.16691026015784857,-0.08710903244665302
1745333512.1816044,-1.014064,0.110471,-0.028853,-0.002257,-0.002257,0.004758,0.23881905875475007,-0.16807950891552179,-0.08725518854136217
1745333512.1844258,-1.012478,0.11114199999999999,-0.022997,-0.001403,-0.0025009999999999998,0.0046359999999999995,0.23881905875475007,-0.16807950891552179,-0.08725518854136217
1745333512.1872413,-1.017175,0.11041,-0.027694,-0.0023179999999999997,-0.0028669999999999998,0.004331,0.23881905875475007,-0.16807950891552179,-0.08725518854136217
1745333512.190057,-1.010892,0.106872,-0.022509,-0.001098,-0.002196,0.004026,0.23881905875475007,-0.16807950891552179,-0.08725518854136217
1745333512.1928728,-1.009001,0.106628,-0.029402,-0.002257,-0.002562,0.0048189999999999995,0.23881905875475007,-0.16807950891552179,-0.08725518854136217
1745333512.1956909,-1.00955,0.107665,-0.025559,-0.002745,-0.00244,0.004697,0.23881905875475007,-0.16807950891552179,-0.08725518854136217
1745333512.198686,-1.00955,0.107726,-0.026535,-0.0018909999999999999,-0.002379,0.005429,0.23881905875475007,-0.16807950891552179,-0.08725518854136217
1745333512.2020469,-1.016626,0.10675,-0.024583,-0.002257,-0.0021349999999999997,0.0044529999999999995,0.23881905875475007,-0.16807950891552179,-0.08725518854136217
1745333512.2052338,-1.014613,0.107726,-0.024704999999999998,-0.001769,-0.003294,0.005978,0.23881905875475007,-0.16807950891552179,-0.08725518854136217
1745333512.208133,-1.010038,0.112057,-0.025254,-0.002013,-0.0021349999999999997,0.004331,0.23648056123940367,-0.16924875767319497,-0.08403975445776089
1745333512.2109785,-1.011075,0.124806,-0.026718,-0.00244,-0.002806,0.004026,0.23648056123940367,-0.16924875767319497,-0.08403975445776089
1745333512.213812,-1.013454,0.106323,-0.026779,-0.001281,-0.002196,0.004331,0.23648056123940367,-0.16924875767319497,-0.08403975445776089
1745333512.216633,-1.010343,0.10931199999999999,-0.022448,-0.0013419999999999999,-0.002013,0.004575,0.23648056123940367,-0.16924875767319497,-0.08403975445776089
1745333512.219446,-1.013515,0.10992199999999999,-0.025315,-0.00183,-0.002196,0.005612,0.23648056123940367,-0.16924875767319497,-0.08403975445776089
1745333512.222263,-1.009794,0.105835,-0.027145,-0.002013,-0.00122,0.0044529999999999995,0.23648056123940367,-0.16924875767319497,-0.08403975445776089
1745333512.225077,-1.007964,0.108153,-0.024583,-0.00183,-0.002623,0.004514,0.23648056123940367,-0.16924875767319497,-0.08403975445776089
1745333512.2279031,-1.01138,0.108519,-0.025681,-0.002257,-0.002562,0.004575,0.23648056123940367,-0.16924875767319497,-0.08403975445776089
1745333512.230968,-1.016321,0.109495,-0.02867,-0.0025009999999999998,-0.001952,0.0040869999999999995,0.23648056123940367,-0.16924875767319497,-0.08403975445776089
1745333512.234269,-1.010526,0.111569,-0.024827,-0.002257,-0.0028669999999999998,0.004575,0.24144986845951477,-0.1625255773165741,-0.08740134463607133
1745333512.2374473,-1.011502,0.108641,-0.024522,-0.002013,-0.002074,0.004331,0.24144986845951477,-0.1625255773165741,-0.08740134463607133
1745333512.240306,-1.009245,0.108763,-0.027206,-0.0018909999999999999,-0.002257,0.0051849999999999995,0.24144986845951477,-0.1625255773165741,-0.08740134463607133
1745333512.2431257,-1.009855,0.108641,-0.027694,-0.002379,-0.001403,0.0040869999999999995,0.24144986845951477,-0.1625255773165741,-0.08740134463607133
1745333512.2459872,-1.00955,0.113033,-0.022875,-0.0021349999999999997,-0.00244,0.004209,0.24144986845951477,-0.1625255773165741,-0.08740134463607133
1745333512.2488086,-1.011685,0.108519,-0.024949,-0.00061,-0.0026839999999999998,0.004758,0.24144986845951477,-0.1625255773165741,-0.08740134463607133
1745333512.2516508,-1.012783,0.108336,-0.025681,-0.002745,-0.0021349999999999997,0.004575,0.24144986845951477,-0.1625255773165741,-0.08740134463607133
1745333512.254479,-1.0126,0.108214,-0.024583,-0.002013,-0.002257,0.0048189999999999995,0.24144986845951477,-0.1625255773165741,-0.08740134463607133
1745333512.2572994,-1.015833,0.10961699999999999,-0.027389,-0.0025009999999999998,-0.00183,0.0035989999999999998,0.23881905875475007,-0.16954106986261328,-0.08886290558316282
1745333512.2601285,-1.010038,0.108153,-0.02379,-0.0028669999999999998,-0.0021349999999999997,0.0046359999999999995,0.23881905875475007,-0.16954106986261328,-0.08886290558316282
1745333512.2631092,-1.009245,0.108885,-0.022631,-0.001952,-0.002623,0.004758,0.23881905875475007,-0.16954106986261328,-0.08886290558316282
1745333512.2664943,-1.011563,0.105835,-0.020374,-0.002013,-0.0021349999999999997,0.003843,0.23881905875475007,-0.16954106986261328,-0.08886290558316282
1745333512.2696824,-1.008757,0.10919,-0.024278,-0.001769,-0.0037819999999999998,0.003538,0.23881905875475007,-0.16954106986261328,-0.08886290558316282
1745333512.2725425,-1.018395,0.109678,-0.024644,-0.002257,-0.002013,0.0042699999999999995,0.23881905875475007,-0.16954106986261328,-0.08886290558316282
1745333512.27536,-1.014918,0.108824,-0.021411,-0.00183,-0.002562,0.0046359999999999995,0.23881905875475007,-0.16954106986261328,-0.08886290558316282
1745333512.2782404,-1.010709,0.108397,-0.026352,-0.0021349999999999997,-0.0021349999999999997,0.004331,0.23881905875475007,-0.16954106986261328,-0.08886290558316282
1745333512.2812567,-1.017236,0.10675,-0.027023,-0.0015249999999999999,-0.0018909999999999999,0.005063,0.23881905875475007,-0.16954106986261328,-0.08886290558316282
1745333512.2841027,-1.00833,0.10638399999999999,-0.023302,-0.00183,-0.002013,0.00366,0.23531131248173048,-0.17041800643086816,-0.09017831043554517
1745333512.286921,-1.008086,0.105591,-0.021289,-0.002074,-0.00183,0.004575,0.23531131248173048,-0.17041800643086816,-0.09017831043554517
1745333512.289742,-1.012661,0.104188,-0.030195,-0.002257,-0.0025009999999999998,0.004697,0.23531131248173048,-0.17041800643086816,-0.09017831043554517
1745333512.2925844,-1.016321,0.109556,-0.025863999999999998,-0.001952,-0.002196,0.0040869999999999995,0.23531131248173048,-0.17041800643086816,-0.09017831043554517
1745333512.2957678,-1.011563,0.10931199999999999,-0.023424,-0.0017079999999999999,-0.0025009999999999998,0.005246,0.23531131248173048,-0.17041800643086816,-0.09017831043554517
1745333512.2991974,-1.011075,0.11102,-0.027389,-0.0023179999999999997,-0.001952,0.004392,0.23531131248173048,-0.17041800643086816,-0.09017831043554517
1745333512.302186,-1.013942,0.109739,-0.027632999999999998,-0.0013419999999999999,-0.002257,0.0046359999999999995,0.23531131248173048,-0.17041800643086816,-0.09017831043554517
1745333512.3050354,-1.011075,0.110898,-0.030622,-0.0023179999999999997,-0.0023179999999999997,0.0050019999999999995,0.23531131248173048,-0.17041800643086816,-0.09017831043554517
1745333512.3078532,-1.013027,0.108336,-0.029341,-0.001586,-0.0030499999999999998,0.004209,0.23531131248173048,-0.17041800643086816,-0.09017831043554517
1745333512.3107064,-1.016077,0.111508,-0.024949,-0.002196,-0.003721,0.0037819999999999998,0.2323881905875475,-0.1607717041800643,-0.08871674948845366
1745333512.3136053,-1.01687,0.107421,-0.029463,-0.001769,-0.002196,0.004758,0.2323881905875475,-0.1607717041800643,-0.08871674948845366
1745333512.3165038,-1.0126,0.111569,-0.026900999999999998,-0.002257,-0.001464,0.004514,0.2323881905875475,-0.1607717041800643,-0.08871674948845366
1745333512.3193421,-1.010831,0.106811,-0.022509,-0.001769,-0.000976,0.004941,0.2323881905875475,-0.1607717041800643,-0.08871674948845366
1745333512.3221684,-1.01382,0.109556,-0.0305,-0.002562,-0.0026839999999999998,0.003965,0.2323881905875475,-0.1607717041800643,-0.08871674948845366
1745333512.3250375,-1.007171,0.10919,-0.023972999999999998,-0.001952,-0.0021349999999999997,0.004758,0.2323881905875475,-0.1607717041800643,-0.08871674948845366
1745333512.3284328,-1.010709,0.11022699999999999,-0.023851,-0.002562,-0.0030499999999999998,0.003965,0.2323881905875475,-0.1607717041800643,-0.08871674948845366
1745333512.331822,-1.013698,0.110593,-0.020618,-0.001586,-0.003477,0.004575,0.2323881905875475,-0.1607717041800643,-0.08871674948845366
1745333512.3347528,-1.015223,0.109556,-0.027206,-0.001098,-0.002562,0.0053679999999999995,0.2315112540192926,-0.16749488453668518,-0.08126278865828705
1745333512.33759,-1.015528,0.108946,-0.027511,-0.001647,-0.00183,0.004514,0.2315112540192926,-0.16749488453668518,-0.08126278865828705
1745333512.3404086,-1.006012,0.108458,-0.023546,-0.0018909999999999999,-0.0026839999999999998,0.0042699999999999995,0.2315112540192926,-0.16749488453668518,-0.08126278865828705
1745333512.3432276,-1.013454,0.108275,-0.028059999999999998,-0.001098,-0.002928,0.0044529999999999995,0.2315112540192926,-0.16749488453668518,-0.08126278865828705
1745333512.346094,-1.010709,0.107177,-0.024583,-0.00183,-0.001464,0.004331,0.2315112540192926,-0.16749488453668518,-0.08126278865828705
1745333512.3489132,-1.01565,0.105896,-0.027145,-0.002074,-0.0030499999999999998,0.004331,0.2315112540192926,-0.16749488453668518,-0.08126278865828705
1745333512.351722,-1.018029,0.10668899999999999,-0.026047,-0.00183,-0.002623,0.003965,0.2315112540192926,-0.16749488453668518,-0.08126278865828705
1745333512.354545,-1.009733,0.109983,-0.02196,-0.002257,-0.0025009999999999998,0.004026,0.2315112540192926,-0.16749488453668518,-0.08126278865828705
1745333512.3575444,-1.010709,0.110471,-0.022203999999999998,-0.001586,-0.001037,0.005063,0.2315112540192926,-0.16749488453668518,-0.08126278865828705
1745333512.360894,-1.006683,0.111447,-0.025071,-0.001586,-0.00122,0.004697,0.233849751534639,-0.1625255773165741,-0.07804735457468577
1745333512.3640738,-1.011014,0.110105,-0.02257,-0.002623,-0.00183,0.004941,0.233849751534639,-0.1625255773165741,-0.07804735457468577
1745333512.3669422,-1.012905,0.110105,-0.020984,-0.001464,-0.002745,0.0050019999999999995,0.233849751534639,-0.1625255773165741,-0.07804735457468577
1745333512.3697846,-1.014613,0.106506,-0.024156,-0.0021349999999999997,-0.002562,0.005063,0.233849751534639,-0.1625255773165741,-0.07804735457468577
1745333512.3726335,-1.01321,0.109373,-0.022265,-0.0021349999999999997,-0.002562,0.005124,0.233849751534639,-0.1625255773165741,-0.07804735457468577
1745333512.3754468,-1.015711,0.110593,-0.023972999999999998,-0.002745,-0.0021349999999999997,0.004514,0.233849751534639,-0.1625255773165741,-0.07804735457468577
1745333512.378308,-1.012295,0.110471,-0.02501,-0.0021349999999999997,-0.001464,0.0040869999999999995,0.233849751534639,-0.1625255773165741,-0.07804735457468577
1745333512.3811388,-1.012905,0.110959,-0.026900999999999998,-0.002257,-0.002013,0.003904,0.233849751534639,-0.1625255773165741,-0.07804735457468577
1745333512.3839614,-1.012661,0.111203,-0.026962,-0.001403,-0.002257,0.004941,0.233849751534639,-0.1625255773165741,-0.07804735457468577
1745333512.386812,-1.014491,0.094855,-0.028059999999999998,-0.002257,-0.0026839999999999998,0.004575,0.2303420052616194,-0.15901783104355452,-0.09047062262496346
1745333512.3907294,-1.010648,0.106262,-0.023729,-0.00244,-0.001952,0.004941,0.2303420052616194,-0.15901783104355452,-0.09047062262496346
1745333512.3943267,-1.015101,0.110349,-0.024522,-0.000366,-0.00244,0.005063,0.2303420052616194,-0.15901783104355452,-0.09047062262496346
1745333512.3974235,-1.0187,0.108458,-0.026779,-0.0011589999999999999,-0.0018909999999999999,0.003904,0.2303420052616194,-0.15901783104355452,-0.09047062262496346
1745333512.4003472,-1.011746,0.112057,-0.023912,-0.002013,-0.002074,0.0046359999999999995,0.2303420052616194,-0.15901783104355452,-0.09047062262496346
1745333512.403716,-1.014613,0.107421,-0.026108,-0.002562,-0.001464,0.004575,0.2303420052616194,-0.15901783104355452,-0.09047062262496346
1745333512.4068377,-1.007415,0.11041,-0.024583,-0.002074,-0.00183,0.00549,0.2303420052616194,-0.15901783104355452,-0.09047062262496346
1745333512.4098577,-1.013149,0.106445,-0.028426,-0.001586,-0.001647,0.004575,0.2303420052616194,-0.15901783104355452,-0.09047062262496346
1745333512.4127798,-1.014369,0.108275,-0.015677,-0.001769,-0.002623,0.003843,0.23706518561824028,-0.1657410114001754,-0.08213972522654195
1745333512.4156199,-1.017907,0.106628,-0.031781,-0.001769,-0.002013,0.0048189999999999995,0.23706518561824028,-0.1657410114001754,-0.08213972522654195
1745333512.4184802,-1.012783,0.108519,-0.027389,-0.002074,-0.002257,0.003538,0.23706518561824028,-0.1657410114001754,-0.08213972522654195
1745333512.42166,-1.015467,0.108458,-0.027511,-0.001464,-0.002806,0.005124,0.23706518561824028,-0.1657410114001754,-0.08213972522654195
1745333512.4250386,-1.000156,0.107665,-0.026108,-0.0023179999999999997,-0.00244,0.004697,0.23706518561824028,-0.1657410114001754,-0.08213972522654195
1745333512.42803,-1.008818,0.110776,-0.024644,-0.0025009999999999998,-0.00244,0.005063,0.23706518561824028,-0.1657410114001754,-0.08213972522654195
1745333512.430889,-1.030534,0.109556,-0.028975,-0.002013,-0.0018909999999999999,0.004148,0.23706518561824028,-0.1657410114001754,-0.08213972522654195
1745333512.433724,-1.012051,0.108946,-0.019947,-0.001281,-0.00244,0.005856,0.23706518561824028,-0.1657410114001754,-0.08213972522654195
1745333512.436548,-1.009733,0.108824,-0.025498,-0.0023179999999999997,-0.0023179999999999997,0.004575,0.23677287342882197,-0.16135632855890092,-0.08842443729903537
1745333512.4393635,-1.014003,0.108885,-0.029707,-0.0018909999999999999,-0.002623,0.00488,0.23677287342882197,-0.16135632855890092,-0.08842443729903537
1745333512.442185,-1.012478,0.109556,-0.022265,-0.0017079999999999999,-0.002623,0.0050019999999999995,0.23677287342882197,-0.16135632855890092,-0.08842443729903537
1745333512.445042,-1.013637,0.108275,-0.026413,-0.002928,-0.0025009999999999998,0.004331,0.23677287342882197,-0.16135632855890092,-0.08842443729903537
1745333512.4478807,-1.013759,0.106506,-0.022935999999999998,-0.0013419999999999999,-0.0017079999999999999,0.005063,0.23677287342882197,-0.16135632855890092,-0.08842443729903537
1745333512.4507601,-1.011746,0.112057,-0.02562,-0.002013,-0.00244,0.004392,0.23677287342882197,-0.16135632855890092,-0.08842443729903537
1745333512.4540648,-1.011136,0.106262,-0.027511,-0.003172,-0.002074,0.0042699999999999995,0.23677287342882197,-0.16135632855890092,-0.08842443729903537
1745333512.4573197,-1.013332,0.108336,-0.026413,-0.0028669999999999998,-0.002013,0.00488,0.23677287342882197,-0.16135632855890092,-0.08842443729903537
1745333512.4601827,-1.016565,0.109251,-0.032635,-0.002196,-0.001586,0.005246,0.23677287342882197,-0.16135632855890092,-0.08842443729903537
1745333512.4630356,-1.011197,0.10919,-0.022631,-0.001586,-0.002013,0.004575,0.23677287342882197,-0.16106401636948262,-0.09047062262496346
1745333512.4658666,-1.016809,0.110105,-0.027206,-0.002257,-0.001403,0.0048189999999999995,0.23677287342882197,-0.16106401636948262,-0.09047062262496346
1745333512.4686866,-1.009794,0.10900699999999999,-0.026535,-0.002257,-0.002257,0.004758,0.23677287342882197,-0.16106401636948262,-0.09047062262496346
1745333512.4714963,-1.012173,0.111264,-0.021838,-0.0030499999999999998,-0.00183,0.0042699999999999995,0.23677287342882197,-0.16106401636948262,-0.09047062262496346
1745333512.474316,-1.017602,0.111569,-0.029707,-0.0013419999999999999,-0.002013,0.004148,0.23677287342882197,-0.16106401636948262,-0.09047062262496346
1745333512.4771314,-1.013759,0.096075,-0.022631,-0.001464,-0.002562,0.004575,0.23677287342882197,-0.16106401636948262,-0.09047062262496346
1745333512.479962,-1.014186,0.11193499999999999,-0.025498,-0.0011589999999999999,-0.001586,0.0046359999999999995,0.23677287342882197,-0.16106401636948262,-0.09047062262496346
1745333512.4829843,-1.015833,0.108275,-0.028853,-0.001464,-0.00244,0.005063,0.23677287342882197,-0.16106401636948262,-0.09047062262496346
1745333512.486344,-1.01626,0.1098,-0.025315,-0.001769,-0.0025009999999999998,0.0044529999999999995,0.23677287342882197,-0.16106401636948262,-0.09047062262496346
1745333512.4895725,-1.009611,0.106872,-0.022203999999999998,-0.002013,-0.0017079999999999999,0.0048189999999999995,0.23969599532300498,-0.16924875767319497,-0.08491669102601579
1745333512.492666,-1.011197,0.10736,-0.027755,-0.0018909999999999999,-0.00244,0.004941,0.23969599532300498,-0.16924875767319497,-0.08491669102601579
1745333512.495569,-1.012356,0.1098,-0.024827,-0.001586,-0.0032329999999999998,0.0048189999999999995,0.23969599532300498,-0.16924875767319497,-0.08491669102601579
1745333512.4985483,-1.014125,0.107421,-0.024888,-0.002013,-0.003538,0.00488,0.23969599532300498,-0.16924875767319497,-0.08491669102601579
1745333512.5053241,-1.013271,0.106445,-0.027267,-0.002623,-0.002379,0.004758,0.23969599532300498,-0.16924875767319497,-0.08491669102601579
1745333512.5083795,-1.013759,0.109678,-0.023972999999999998,-0.002989,-0.0030499999999999998,0.004392,0.23969599532300498,-0.16924875767319497,-0.08491669102601579
1745333512.5112455,-1.011807,0.110898,-0.023485,-0.002074,-0.002379,0.004026,0.23969599532300498,-0.16924875767319497,-0.08491669102601579
1745333512.5142572,-1.007903,0.11041,-0.023607,-0.0017079999999999999,-0.002074,0.004758,0.23911137094416837,-0.1657410114001754,-0.08477053493130664
1745333512.5176032,-1.012478,0.107177,-0.027145,-0.00183,-0.0018909999999999999,0.005856,0.23911137094416837,-0.1657410114001754,-0.08477053493130664
1745333512.5207944,-1.016992,0.108824,-0.02684,-0.00244,-0.0023179999999999997,0.005307,0.23911137094416837,-0.1657410114001754,-0.08477053493130664
1745333512.5237114,-1.013942,0.10638399999999999,-0.025436999999999998,-0.0017079999999999999,-0.002074,0.0046359999999999995,0.23911137094416837,-0.1657410114001754,-0.08477053493130664
1745333512.5265958,-1.013576,0.112667,-0.021655,-0.002013,-0.0021349999999999997,0.004392,0.23911137094416837,-0.1657410114001754,-0.08477053493130664
1745333512.5295107,-1.011868,0.107543,-0.030012,-0.00244,-0.0025009999999999998,0.004697,0.23911137094416837,-0.1657410114001754,-0.08477053493130664
1745333512.5323522,-1.012478,0.106018,-0.029463,-0.0015249999999999999,-0.001647,0.0046359999999999995,0.23911137094416837,-0.1657410114001754,-0.08477053493130664
1745333512.5351698,-1.008147,0.109861,-0.023363,-0.0015249999999999999,-0.00244,0.0044529999999999995,0.23911137094416837,-0.1657410114001754,-0.08477053493130664
1745333512.537992,-1.0126,0.108519,-0.026413,-0.001586,-0.002745,0.005307,0.23911137094416837,-0.1657410114001754,-0.08477053493130664
1745333512.5408103,-1.017297,0.11022699999999999,-0.029219,-0.001647,-0.0018909999999999999,0.003538,0.24174218064893305,-0.17041800643086816,-0.08871674948845366
1745333512.543644,-1.01138,0.111996,-0.026900999999999998,-0.002745,-0.00244,0.0050019999999999995,0.24174218064893305,-0.17041800643086816,-0.08871674948845366
1745333512.546813,-1.013576,0.111264,-0.027877,-0.0021349999999999997,-0.0026839999999999998,0.005307,0.24174218064893305,-0.17041800643086816,-0.08871674948845366
1745333512.5502455,-1.013881,0.108641,-0.023241,-0.001403,-0.001952,0.0040869999999999995,0.24174218064893305,-0.17041800643086816,-0.08871674948845366
1745333512.553229,-1.012112,0.124745,-0.02501,-0.000976,-0.002745,0.004941,0.24174218064893305,-0.17041800643086816,-0.08871674948845366
1745333512.5561006,-1.009672,0.106933,-0.027694,-0.002745,-0.001952,0.0046359999999999995,0.24174218064893305,-0.17041800643086816,-0.08871674948845366
1745333512.558923,-1.012844,0.107055,-0.023546,-0.002074,-0.0025009999999999998,0.004331,0.24174218064893305,-0.17041800643086816,-0.08871674948845366
1745333512.5617847,-1.015833,0.108458,-0.028304,-0.002989,-0.003111,0.0042699999999999995,0.24174218064893305,-0.17041800643086816,-0.08871674948845366
1745333512.5646157,-1.010831,0.107482,-0.026413,-0.0023179999999999997,-0.002196,0.0046359999999999995,0.2323881905875475,-0.16866413329435836,-0.09222449576147325
1745333512.5674288,-1.010099,0.108702,-0.028364999999999998,-0.001586,-0.0025009999999999998,0.004148,0.2323881905875475,-0.16866413329435836,-0.09222449576147325
1745333512.5702498,-1.010953,0.104798,-0.028731,-0.003111,-0.002379,0.005246,0.2323881905875475,-0.16866413329435836,-0.09222449576147325
1745333512.5730937,-1.017846,0.10961699999999999,-0.031232,-0.002562,-0.002013,0.003904,0.2323881905875475,-0.16866413329435836,-0.09222449576147325
1745333512.5759425,-1.027728,0.109129,-0.030317,-0.001952,-0.002196,0.004148,0.2323881905875475,-0.16866413329435836,-0.09222449576147325
1745333512.5792725,-1.011136,0.107482,-0.022997,-0.001464,-0.0025009999999999998,0.004026,0.2323881905875475,-0.16866413329435836,-0.09222449576147325
1745333512.5825229,-1.011685,0.11083699999999999,-0.030012,-0.002745,-0.002379,0.0040869999999999995,0.2323881905875475,-0.16866413329435836,-0.09222449576147325
1745333512.5853846,-1.009062,0.110349,-0.024156,-0.0023179999999999997,-0.0023179999999999997,0.005429,0.2323881905875475,-0.16866413329435836,-0.09222449576147325
1745333512.588222,-1.014308,0.1098,-0.027999,-0.003172,-0.002074,0.004758,0.2323881905875475,-0.16866413329435836,-0.09222449576147325
1745333512.5910347,-1.008452,0.110349,-0.024217,-0.00183,-0.0023179999999999997,0.005063,0.23706518561824028,-0.16807950891552179,-0.0817012569424145
1745333512.5938573,-1.01077,0.110349,-0.021838,-0.002623,-0.001586,0.004392,0.23706518561824028,-0.16807950891552179,-0.0817012569424145
1745333512.5967882,-1.018761,0.10992199999999999,-0.031842,-0.0026839999999999998,-0.002196,0.0044529999999999995,0.23706518561824028,-0.16807950891552179,-0.0817012569424145
1745333512.5999079,-1.01443,0.11114199999999999,-0.028304,-0.0013419999999999999,-0.001952,0.0046359999999999995,0.23706518561824028,-0.16807950891552179,-0.0817012569424145
1745333512.6027806,-1.013088,0.108763,-0.029341,-0.001769,-0.001403,0.005063,0.23706518561824028,-0.16807950891552179,-0.0817012569424145
1745333512.605621,-1.009611,0.110959,-0.024217,-0.002745,-0.0025009999999999998,0.004697,0.23706518561824028,-0.16807950891552179,-0.0817012569424145
1745333512.6086085,-1.010587,0.107421,-0.028609,-0.00183,-0.002257,0.005429,0.23706518561824028,-0.16807950891552179,-0.0817012569424145
1745333512.6119277,-1.013881,0.109373,-0.022935999999999998,-0.001769,-0.0026839999999999998,0.004697,0.23706518561824028,-0.16807950891552179,-0.0817012569424145
1745333512.615202,-1.010099,0.107848,-0.025436999999999998,-0.002379,-0.001952,0.003965,0.23706518561824028,-0.16807950891552179,-0.0817012569424145
1745333512.6180587,-1.012234,0.107421,-0.028304,-0.0021349999999999997,-0.002013,0.0044529999999999995,0.2329728149663841,-0.1666179479684303,-0.08491669102601579
1745333512.6208928,-1.012661,0.108092,-0.024461,-0.002562,-0.002928,0.005246,0.2329728149663841,-0.1666179479684303,-0.08491669102601579
1745333512.6237025,-1.012966,0.108153,-0.027816,-0.0017079999999999999,-0.002989,0.004209,0.2329728149663841,-0.1666179479684303,-0.08491669102601579
1745333512.6265247,-1.010404,0.109983,-0.023485,-0.002074,-0.002562,0.004209,0.2329728149663841,-0.1666179479684303,-0.08491669102601579
1745333512.6293867,-1.002657,0.110105,-0.025803,-0.002196,-0.0028669999999999998,0.004514,0.2329728149663841,-0.1666179479684303,-0.08491669102601579
1745333512.6322718,-1.010343,0.107726,-0.028182,-0.00183,-0.001464,0.003843,0.2329728149663841,-0.1666179479684303,-0.08491669102601579
1745333512.6350899,-1.016504,0.109556,-0.025986,-0.002623,-0.001769,0.004575,0.2329728149663841,-0.1666179479684303,-0.08491669102601579
1745333512.6379128,-1.014735,0.110044,-0.027023,-0.0018909999999999999,-0.002928,0.004026,0.2329728149663841,-0.1666179479684303,-0.08491669102601579
1745333512.6409152,-1.01443,0.110959,-0.027572,-0.00183,-0.002562,0.00488,0.2329728149663841,-0.1666179479684303,-0.08491669102601579
1745333512.64426,-1.008208,0.107848,-0.028548,-0.00183,-0.002623,0.003721,0.2335574393452207,-0.16544869921075708,-0.08257819351066939
1745333512.6474457,-1.015345,0.110044,-0.031049,-0.00183,-0.002806,0.004575,0.2335574393452207,-0.16544869921075708,-0.08257819351066939
1745333512.6503077,-1.012417,0.105591,-0.027511,-0.0025009999999999998,-0.0017079999999999999,0.003843,0.2335574393452207,-0.16544869921075708,-0.08257819351066939
1745333512.6531305,-1.014125,0.10760399999999999,-0.026657,-0.002257,-0.0023179999999999997,0.005063,0.2335574393452207,-0.16544869921075708,-0.08257819351066939
1745333512.6560035,-1.017663,0.105652,-0.028121,-0.002013,-0.00244,0.003904,0.2335574393452207,-0.16544869921075708,-0.08257819351066939
1745333512.6588295,-1.011441,0.107238,-0.020374,-0.002013,-0.001952,0.004697,0.2335574393452207,-0.16544869921075708,-0.08257819351066939
1745333512.661685,-1.010343,0.106018,-0.023546,-0.002196,-0.002257,0.004514,0.2335574393452207,-0.16544869921075708,-0.08257819351066939
1745333512.664513,-1.009611,0.110471,-0.020557,-0.002379,-0.002257,0.004575,0.2335574393452207,-0.16544869921075708,-0.08257819351066939
1745333512.6673207,-1.01565,0.105164,-0.028426,-0.00244,-0.0028669999999999998,0.004758,0.2356036246711488,-0.1622332651271558,-0.08973984215141771
1745333512.670153,-1.01931,0.106445,-0.028731,-0.002806,-0.002379,0.004209,0.2356036246711488,-0.1622332651271558,-0.08973984215141771
1745333512.6731942,-1.011807,0.109129,-0.027084,-0.0021349999999999997,-0.002928,0.0048189999999999995,0.2356036246711488,-0.1622332651271558,-0.08973984215141771
1745333512.6765575,-1.012539,0.11053199999999999,-0.027084,-0.001647,-0.0025009999999999998,0.005063,0.2356036246711488,-0.1622332651271558,-0.08973984215141771
1745333512.6797135,-1.014064,0.110471,-0.028059999999999998,-0.001586,-0.0023179999999999997,0.005307,0.2356036246711488,-0.1622332651271558,-0.08973984215141771
1745333512.6825848,-1.009489,0.109678,-0.024827,-0.0021349999999999997,-0.002379,0.004209,0.2356036246711488,-0.1622332651271558,-0.08973984215141771
1745333512.6854177,-1.015589,0.10961699999999999,-0.031964,-0.003172,-0.002013,0.005429,0.2356036246711488,-0.1622332651271558,-0.08973984215141771
1745333512.6882734,-1.008574,0.110349,-0.025742,-0.002196,-0.002562,0.005124,0.2356036246711488,-0.1622332651271558,-0.08973984215141771
1745333512.6910925,-1.009733,0.110166,-0.028121,-0.001037,-0.002257,0.0048189999999999995,0.2356036246711488,-0.1622332651271558,-0.08973984215141771
1745333512.6939287,-1.01077,0.11102,-0.024583,-0.001586,-0.001769,0.0040869999999999995,0.2297573808827828,-0.16691026015784857,-0.08842443729903537
1745333512.6967957,-1.011502,0.107177,-0.029951,-0.0018909999999999999,-0.0026839999999999998,0.004758,0.2297573808827828,-0.16691026015784857,-0.08842443729903537
1745333512.6996138,-1.012051,0.105896,-0.024704999999999998,-0.00122,-0.0026839999999999998,0.0040869999999999995,0.2297573808827828,-0.16691026015784857,-0.08842443729903537
1745333512.7024658,-1.014186,0.109861,-0.023241,-0.0025009999999999998,-0.002196,0.004697,0.2297573808827828,-0.16691026015784857,-0.08842443729903537
1745333512.7056494,-1.011197,0.110898,-0.021838,-0.0025009999999999998,-0.001647,0.0046359999999999995,0.2297573808827828,-0.16691026015784857,-0.08842443729903537
1745333512.709037,-1.012051,0.107543,-0.024827,-0.0015249999999999999,-0.0028669999999999998,0.004575,0.2297573808827828,-0.16691026015784857,-0.08842443729903537
1745333512.7120228,-1.014308,0.108763,-0.027084,-0.0023179999999999997,-0.002196,0.004026,0.2297573808827828,-0.16691026015784857,-0.08842443729903537
1745333512.714873,-1.017541,0.110044,-0.032147,-0.00244,-0.0018909999999999999,0.0042699999999999995,0.2297573808827828,-0.16691026015784857,-0.08842443729903537
1745333512.7177095,-1.015223,0.109129,-0.02928,-0.002379,-0.0018909999999999999,0.0050019999999999995,0.2297573808827828,-0.16691026015784857,-0.08842443729903537
1745333512.7205336,-1.009916,0.110959,-0.025436999999999998,-0.002013,-0.002013,0.0048189999999999995,0.2341420637240573,-0.1657410114001754,-0.07570885705933937
1745333512.7233438,-1.014125,0.10790899999999999,-0.028487,-0.001586,-0.002379,0.00549,0.2341420637240573,-0.1657410114001754,-0.07570885705933937
1745333512.7261689,-1.014613,0.109739,-0.028121,-0.0015249999999999999,-0.002013,0.00488,0.2341420637240573,-0.1657410114001754,-0.07570885705933937
1745333512.72905,-1.01382,0.10699399999999999,-0.030134,-0.001098,-0.0025009999999999998,0.004575,0.2341420637240573,-0.1657410114001754,-0.07570885705933937
1745333512.731895,-1.01138,0.107665,-0.026474,-0.002806,-0.0030499999999999998,0.004209,0.2341420637240573,-0.1657410114001754,-0.07570885705933937
1745333512.7347672,-1.011258,0.108092,-0.023729,-0.0026839999999999998,-0.002989,0.0050019999999999995,0.2341420637240573,-0.1657410114001754,-0.07570885705933937
1745333512.7383103,-1.011319,0.106323,-0.02196,-0.001769,-0.002745,0.0048189999999999995,0.2341420637240573,-0.1657410114001754,-0.07570885705933937
1745333512.7415533,-1.014247,0.108519,-0.024766,-0.001769,-0.002379,0.004026,0.2341420637240573,-0.1657410114001754,-0.07570885705933937
1745333512.7444232,-1.009794,0.105957,-0.025742,-0.002623,-0.0025009999999999998,0.004331,0.22858813212510962,-0.1636948260742473,-0.08520900321543408
1745333512.7472801,-1.013271,0.10577399999999999,-0.027023,-0.001464,-0.003172,0.004575,0.22858813212510962,-0.1636948260742473,-0.08520900321543408
1745333512.75012,-1.011197,0.109434,-0.022997,-0.002745,-0.002074,0.0053679999999999995,0.22858813212510962,-0.1636948260742473,-0.08520900321543408
1745333512.752948,-1.014064,0.108397,-0.028609,-0.002623,-0.00183,0.005246,0.22858813212510962,-0.1636948260742473,-0.08520900321543408
1745333512.7557604,-1.011624,0.107848,-0.021899,-0.0018909999999999999,-0.001586,0.0048189999999999995,0.22858813212510962,-0.1636948260742473,-0.08520900321543408
1745333512.7585866,-1.014064,0.10797,-0.028121,-0.002013,-0.002196,0.004514,0.22858813212510962,-0.1636948260742473,-0.08520900321543408
1745333512.7614067,-1.008452,0.10729899999999999,-0.020313,-0.001403,-0.002257,0.004209,0.22858813212510962,-0.1636948260742473,-0.08520900321543408
1745333512.764236,-1.013515,0.110654,-0.027023,-0.0017079999999999999,-0.0030499999999999998,0.004209,0.22858813212510962,-0.1636948260742473,-0.08520900321543408
1745333512.7672637,-1.026691,0.106628,-0.027327999999999998,-0.001952,-0.0021349999999999997,0.0040869999999999995,0.22858813212510962,-0.1636948260742473,-0.08520900321543408
1745333512.7705817,-1.008208,0.111386,-0.026108,-0.00183,-0.002562,0.005063,0.2282958199356913,-0.16954106986261328,-0.08213972522654195
1745333512.773764,-1.012661,0.10900699999999999,-0.024034,-0.003172,-0.0026839999999999998,0.004026,0.2282958199356913,-0.16954106986261328,-0.08213972522654195
1745333512.776629,-1.014064,0.108336,-0.028731,-0.0026839999999999998,-0.0028669999999999998,0.0050019999999999995,0.2282958199356913,-0.16954106986261328,-0.08213972522654195
1745333512.7794795,-1.01504,0.10614,-0.028059999999999998,-0.00244,-0.0028669999999999998,0.0040869999999999995,0.2282958199356913,-0.16954106986261328,-0.08213972522654195
1745333512.782321,-1.014186,0.106506,-0.027206,-0.00183,-0.00244,0.0040869999999999995,0.2282958199356913,-0.16954106986261328,-0.08213972522654195
1745333512.7851381,-1.014735,0.109251,-0.028853,-0.0021349999999999997,-0.0023179999999999997,0.005124,0.2282958199356913,-0.16954106986261328,-0.08213972522654195
1745333512.7880018,-1.009001,0.109739,-0.022814,-0.001769,-0.0026839999999999998,0.0046359999999999995,0.2282958199356913,-0.16954106986261328,-0.08213972522654195
1745333512.7908869,-1.017175,0.110715,-0.028853,-0.002074,-0.002257,0.0048189999999999995,0.2282958199356913,-0.16954106986261328,-0.08213972522654195
1745333512.7937663,-1.012295,0.108336,-0.024095,-0.0030499999999999998,-0.001464,0.0040869999999999995,0.2282958199356913,-0.16954106986261328,-0.08213972522654195
1745333512.7966726,-1.013149,0.109739,-0.02318,-0.0023179999999999997,-0.00183,0.0044529999999999995,0.23764980999707688,-0.1639871382636656,-0.08038585209003216
1745333512.7998462,-1.013149,0.107421,-0.02562,-0.002623,-0.002013,0.003965,0.23764980999707688,-0.1639871382636656,-0.08038585209003216
1745333512.8033252,-1.013881,0.109373,-0.026474,-0.0015249999999999999,-0.00244,0.0046359999999999995,0.23764980999707688,-0.1639871382636656,-0.08038585209003216
1745333512.806585,-1.014918,0.108275,-0.02867,-0.0028669999999999998,-0.002013,0.004026,0.23764980999707688,-0.1639871382636656,-0.08038585209003216
1745333512.8095427,-1.012478,0.109861,-0.023972999999999998,-0.0017079999999999999,-0.0030499999999999998,0.0050019999999999995,0.23764980999707688,-0.1639871382636656,-0.08038585209003216
1745333512.8124704,-1.012112,0.108214,-0.02379,-0.002196,-0.0018909999999999999,0.004758,0.23764980999707688,-0.1639871382636656,-0.08038585209003216
1745333512.8153484,-1.012051,0.109556,-0.023729,-0.001647,-0.0013419999999999999,0.004575,0.23764980999707688,-0.1639871382636656,-0.08038585209003216
1745333512.8182328,-1.014064,0.108946,-0.02562,-0.0023179999999999997,-0.0026839999999999998,0.0042699999999999995,0.23764980999707688,-0.1639871382636656,-0.08038585209003216
1745333512.821112,-1.014552,0.109556,-0.026718,-0.002074,-0.001586,0.0048189999999999995,0.23706518561824028,-0.16106401636948262,-0.080239695995323
1745333512.8239937,-1.013393,0.108763,-0.024339,-0.0026839999999999998,-0.002928,0.004575,0.23706518561824028,-0.16106401636948262,-0.080239695995323
1745333512.8268726,-1.014186,0.108336,-0.026108,-0.0015249999999999999,-0.001403,0.004697,0.23706518561824028,-0.16106401636948262,-0.080239695995323
1745333512.8297772,-1.012966,0.110044,-0.023607,-0.0017079999999999999,-0.0030499999999999998,0.004941,0.23706518561824028,-0.16106401636948262,-0.080239695995323
1745333512.8330321,-1.013088,0.112423,-0.023546,-0.002379,-0.002257,0.004331,0.23706518561824028,-0.16106401636948262,-0.080239695995323
1745333512.836431,-1.00894,0.10900699999999999,-0.022692,-0.002257,-0.0023179999999999997,0.0048189999999999995,0.23706518561824028,-0.16106401636948262,-0.080239695995323
1745333512.8394465,-1.011014,0.10760399999999999,-0.024461,-0.002196,-0.001952,0.004758,0.23706518561824028,-0.16106401636948262,-0.080239695995323
1745333512.8423638,-1.014735,0.107726,-0.02623,-0.001586,-0.002379,0.003721,0.23706518561824028,-0.16106401636948262,-0.080239695995323
1745333512.845265,-1.009916,0.108092,-0.020435,-0.002379,-0.0015249999999999999,0.0044529999999999995,0.23706518561824028,-0.16106401636948262,-0.080239695995323
1745333512.8482373,-1.011929,0.10699399999999999,-0.026291,-0.002013,-0.00183,0.00488,0.2326805027769658,-0.1657410114001754,-0.08330897398421515
1745333512.8511515,-1.012295,0.10858,-0.026108,-0.001952,-0.0023179999999999997,0.0035989999999999998,0.2326805027769658,-0.1657410114001754,-0.08330897398421515
1745333512.8540456,-1.013088,0.108397,-0.028975,-0.002013,-0.0028669999999999998,0.004392,0.2326805027769658,-0.1657410114001754,-0.08330897398421515
1745333512.8568935,-1.010709,0.108824,-0.024949,-0.001769,-0.002623,0.004514,0.2326805027769658,-0.1657410114001754,-0.08330897398421515
1745333512.8597033,-1.014979,0.10900699999999999,-0.028914,-0.002013,-0.0021349999999999997,0.004331,0.2326805027769658,-0.1657410114001754,-0.08330897398421515
1745333512.862584,-1.014369,0.108763,-0.02623,-0.002074,-0.0015249999999999999,0.004514,0.2326805027769658,-0.1657410114001754,-0.08330897398421515
1745333512.8659093,-1.016565,0.108153,-0.029096999999999998,-0.001403,-0.002074,0.0046359999999999995,0.2326805027769658,-0.1657410114001754,-0.08330897398421515
1745333512.8691673,-1.017602,0.105591,-0.026595999999999998,-0.001281,-0.001586,0.004758,0.2326805027769658,-0.1657410114001754,-0.08330897398421515
1745333512.872136,-1.014613,0.107116,-0.027632999999999998,-0.0023179999999999997,-0.0023179999999999997,0.0048189999999999995,0.23121894182987432,-0.1636948260742473,-0.07863197895352236
1745333512.8750794,-1.013088,0.10577399999999999,-0.029219,-0.002257,-0.0015249999999999999,0.004758,0.23121894182987432,-0.1636948260742473,-0.07863197895352236
1745333512.87805,-1.011929,0.109495,-0.025681,-0.001098,-0.0030499999999999998,0.004331,0.23121894182987432,-0.1636948260742473,-0.07863197895352236
1745333512.88097,-1.007476,0.110166,-0.021471999999999998,-0.0017079999999999999,-0.002257,0.0040869999999999995,0.23121894182987432,-0.1636948260742473,-0.07863197895352236
1745333512.8839664,-1.015284,0.107848,-0.028182,-0.001586,-0.0026839999999999998,0.004026,0.23121894182987432,-0.1636948260742473,-0.07863197895352236
1745333512.886852,-1.013454,0.107848,-0.021777,-0.001586,-0.002379,0.004575,0.23121894182987432,-0.1636948260742473,-0.07863197895352236
1745333512.889833,-1.017541,0.106262,-0.030073,-0.003477,-0.002623,0.0050019999999999995,0.23121894182987432,-0.1636948260742473,-0.07863197895352236
1745333512.8929682,-1.013637,0.10675,-0.028304,-0.002989,-0.002074,0.003965,0.23121894182987432,-0.1636948260742473,-0.07863197895352236
1745333512.896228,-1.015284,0.110593,-0.030744,-0.00122,-0.002257,0.005246,0.23121894182987432,-0.1636948260742473,-0.07863197895352236
1745333512.8994446,-1.014491,0.106201,-0.027999,-0.000915,-0.002013,0.00488,0.2341420637240573,-0.1645717626425022,-0.08462437883659749
1745333512.90242,-1.011868,0.111508,-0.024644,-0.00122,-0.003294,0.005063,0.2341420637240573,-0.1645717626425022,-0.08462437883659749
1745333512.9052687,-1.015833,0.10961699999999999,-0.03111,-0.00183,-0.00244,0.004331,0.2341420637240573,-0.1645717626425022,-0.08462437883659749
1745333512.9080942,-1.014918,0.10931199999999999,-0.025315,-0.002257,-0.0026839999999999998,0.003965,0.2341420637240573,-0.1645717626425022,-0.08462437883659749
1745333512.9109137,-1.009916,0.107116,-0.023546,-0.001647,-0.002013,0.0044529999999999995,0.2341420637240573,-0.1645717626425022,-0.08462437883659749
1745333512.9137816,-1.008757,0.110776,-0.024095,-0.002013,-0.001403,0.004697,0.2341420637240573,-0.1645717626425022,-0.08462437883659749
1745333512.9166126,-1.013637,0.10900699999999999,-0.03111,-0.001952,-0.003111,0.00549,0.2341420637240573,-0.1645717626425022,-0.08462437883659749
1745333512.919427,-1.017114,0.11102,-0.022997,-0.002013,-0.003294,0.004209,0.2341420637240573,-0.1645717626425022,-0.08462437883659749
1745333512.9222414,-1.011868,0.109068,-0.023485,-0.002562,-0.001647,0.004331,0.2341420637240573,-0.1645717626425022,-0.08462437883659749
1745333512.9250958,-1.008818,0.110044,-0.02501,-0.002074,-0.0021349999999999997,0.004697,0.23735749780765858,-0.17217187956737795,-0.08550131540485238
1745333512.9284058,-1.013576,0.111691,-0.027267,-0.0025009999999999998,-0.002257,0.004514,0.23735749780765858,-0.17217187956737795,-0.08550131540485238
1745333512.9316175,-1.016199,0.107177,-0.027632999999999998,-0.001769,-0.002379,0.00366,0.23735749780765858,-0.17217187956737795,-0.08550131540485238
1745333512.9344883,-1.012783,0.109983,-0.025986,-0.0013419999999999999,-0.002196,0.004514,0.23735749780765858,-0.17217187956737795,-0.08550131540485238
1745333512.9373214,-1.010465,0.110166,-0.024583,-0.00183,-0.002745,0.004758,0.23735749780765858,-0.17217187956737795,-0.08550131540485238
1745333512.9401417,-1.011563,0.111691,-0.025071,-0.00183,-0.002623,0.005246,0.23735749780765858,-0.17217187956737795,-0.08550131540485238
1745333512.9429545,-1.011868,0.093696,-0.029341,-0.00183,-0.003111,0.0046359999999999995,0.23735749780765858,-0.17217187956737795,-0.08550131540485238
1745333512.9458094,-1.014247,0.110288,-0.026047,-0.002257,-0.00244,0.005246,0.23735749780765858,-0.17217187956737795,-0.08550131540485238
1745333512.9486444,-1.014918,0.108275,-0.030134,-0.002074,-0.002196,0.004941,0.23735749780765858,-0.1625255773165741,-0.08272434960537854
1745333512.9514585,-1.015833,0.111813,-0.026474,-0.00122,-0.002074,0.0048189999999999995,0.22917275650394622,-0.1625255773165741,-0.08272434960537854
1745333512.9542859,-1.013454,0.109373,-0.021228,-0.0013419999999999999,-0.00183,0.004392,0.22917275650394622,-0.1625255773165741,-0.08272434960537854
1745333512.9572906,-1.01199,0.12383,-0.027023,-0.002074,-0.0013419999999999999,0.004392,0.22917275650394622,-0.1625255773165741,-0.08272434960537854
1745333512.9606888,-1.01504,0.107665,-0.02989,-0.002989,-0.0025009999999999998,0.004392,0.22917275650394622,-0.1625255773165741,-0.08272434960537854
1745333512.9638288,-1.014674,0.10992199999999999,-0.026291,-0.0015249999999999999,-0.0017079999999999999,0.0053679999999999995,0.22917275650394622,-0.1625255773165741,-0.08272434960537854
1745333512.9667063,-1.012356,0.107116,-0.028791999999999998,-0.002074,-0.002623,0.0037819999999999998,0.22917275650394622,-0.1625255773165741,-0.08272434960537854
1745333512.9695668,-1.00894,0.110166,-0.022753,-0.00244,-0.0021349999999999997,0.004514,0.22917275650394622,-0.1625255773165741,-0.08272434960537854
1745333512.9723935,-1.012417,0.110044,-0.026291,-0.002196,-0.00183,0.0046359999999999995,0.22917275650394622,-0.1625255773165741,-0.08272434960537854
1745333512.9752028,-1.014674,0.109068,-0.022631,-0.001952,-0.001403,0.0046359999999999995,0.233849751534639,-0.17275650394621456,-0.08418591055247004
1745333512.9780235,-1.011563,0.108885,-0.02745,-0.0013419999999999999,-0.002013,0.005307,0.233849751534639,-0.17275650394621456,-0.08418591055247004
1745333512.9808855,-1.015528,0.108519,-0.024522,-0.0021349999999999997,-0.003172,0.005307,0.233849751534639,-0.17275650394621456,-0.08418591055247004
1745333512.9837022,-1.015284,0.111264,-0.020679,-0.002074,-0.002013,0.004026,0.233849751534639,-0.17275650394621456,-0.08418591055247004
1745333512.9865496,-1.009977,0.11022699999999999,-0.023546,-0.0013419999999999999,-0.001769,0.004148,0.233849751534639,-0.17275650394621456,-0.08418591055247004
1745333512.98975,-1.012051,0.110898,-0.024034,-0.001647,-0.00244,0.004392,0.233849751534639,-0.17275650394621456,-0.08418591055247004
1745333512.9931083,-1.015711,0.105652,-0.030744,-0.001403,-0.002623,0.0044529999999999995,0.233849751534639,-0.17275650394621456,-0.08418591055247004
1745333512.996139,-1.01077,0.110471,-0.024156,-0.001281,-0.0013419999999999999,0.004697,0.233849751534639,-0.17275650394621456,-0.08418591055247004
1745333512.998977,-1.012966,0.107787,-0.027816,-0.00183,-0.001769,0.004575,0.233849751534639,-0.17275650394621456,-0.08418591055247004
1745333513.0018084,-1.016992,0.11083699999999999,-0.030317,-0.0025009999999999998,-0.0028669999999999998,0.005307,0.2379421221864952,-0.16983338205203158,-0.0819935691318328
1745333513.004632,-1.017663,0.11041,-0.029158,-0.0023179999999999997,-0.002806,0.005124,0.2379421221864952,-0.16983338205203158,-0.0819935691318328
1745333513.007441,-1.011868,0.112606,-0.025986,-0.00183,-0.001586,0.005063,0.2379421221864952,-0.16983338205203158,-0.0819935691318328
1745333513.010263,-1.010526,0.108092,-0.028853,-0.0021349999999999997,-0.002013,0.004758,0.2379421221864952,-0.16983338205203158,-0.0819935691318328
1745333513.0131226,-1.015894,0.105713,-0.028243,-0.0015249999999999999,-0.002379,0.004575,0.2379421221864952,-0.16983338205203158,-0.0819935691318328
1745333513.0159554,-1.014979,0.109434,-0.026900999999999998,-0.0011589999999999999,-0.0028669999999999998,0.0048189999999999995,0.2379421221864952,-0.16983338205203158,-0.0819935691318328
1745333513.0188358,-1.011929,0.110471,-0.02562,-0.0026839999999999998,-0.003111,0.004758,0.2379421221864952,-0.16983338205203158,-0.0819935691318328
1745333513.0222044,-1.016565,0.106445,-0.028487,-0.002379,-0.001769,0.005124,0.2379421221864952,-0.16983338205203158,-0.0819935691318328
1745333513.025448,-1.019188,0.105835,-0.029036,-0.0015249999999999999,-0.001769,0.005124,0.2379421221864952,-0.16983338205203158,-0.08389359836305174
1745333513.0283206,-1.015162,0.108702,-0.030073,-0.001769,-0.001586,0.0046359999999999995,0.24437299035369775,-0.17275650394621456,-0.08389359836305174
1745333513.0311666,-1.014857,0.105591,-0.027023,-0.002196,-0.0030499999999999998,0.0040869999999999995,0.24437299035369775,-0.17275650394621456,-0.08389359836305174
1745333513.0340436,-1.013027,0.112911,-0.022631,-0.001647,-0.002562,0.0044529999999999995,0.24437299035369775,-0.17275650394621456,-0.08389359836305174
1745333513.036869,-1.012783,0.110471,-0.023424,-0.002013,-0.0025009999999999998,0.004697,0.24437299035369775,-0.17275650394621456,-0.08389359836305174
1745333513.0396786,-1.01443,0.108458,-0.02562,-0.001586,-0.002074,0.004331,0.24437299035369775,-0.17275650394621456,-0.08389359836305174
1745333513.0424955,-1.015223,0.107177,-0.028609,-0.002013,-0.0023179999999999997,0.0048189999999999995,0.24437299035369775,-0.17275650394621456,-0.08389359836305174
1745333513.045365,-1.01138,0.10961699999999999,-0.023667999999999998,-0.0017079999999999999,-0.00183,0.004331,0.24437299035369775,-0.17275650394621456,-0.08389359836305174
1745333513.0482473,-1.016931,0.110471,-0.025071,-0.001098,-0.003294,0.004026,0.24437299035369775,-0.17275650394621456,-0.08389359836305174
1745333513.0512311,-1.012722,0.10919,-0.026595999999999998,-0.002196,-0.0025009999999999998,0.004941,0.24437299035369775,-0.1619409529377375,-0.08769365682548963
1745333513.05456,-1.012417,0.107421,-0.030439,-0.0023179999999999997,-0.0028669999999999998,0.005673,0.22946506869336453,-0.1619409529377375,-0.08769365682548963
1745333513.0577364,-1.011075,0.11114199999999999,-0.025498,-0.002562,-0.001647,0.004026,0.22946506869336453,-0.1619409529377375,-0.08769365682548963
1745333513.0606074,-1.009977,0.106262,-0.026962,-0.00183,-0.002196,0.0037819999999999998,0.22946506869336453,-0.1619409529377375,-0.08769365682548963
1745333513.0634544,-1.010282,0.112972,-0.021838,-0.00183,-0.002562,0.004758,0.22946506869336453,-0.1619409529377375,-0.08769365682548963
1745333513.066287,-1.014064,0.108275,-0.024827,-0.00244,-0.0023179999999999997,0.004941,0.22946506869336453,-0.1619409529377375,-0.08769365682548963
1745333513.0691082,-1.014125,0.111569,-0.020496,-0.002562,-0.001586,0.004209,0.22946506869336453,-0.1619409529377375,-0.08769365682548963
1745333513.07189,-1.012539,0.110593,-0.026595999999999998,-0.002257,-0.0028669999999999998,0.0048189999999999995,0.22946506869336453,-0.1619409529377375,-0.08769365682548963
1745333513.0747125,-1.013942,0.10858,-0.029646,-0.0015249999999999999,-0.002196,0.004575,0.22946506869336453,-0.1619409529377375,-0.08769365682548963
1745333513.077538,-1.00955,0.110654,-0.022448,-0.001586,-0.001952,0.004575,0.23648056123940367,-0.16544869921075708,-0.08959368605670856
1745333513.0803642,-1.012417,0.110654,-0.023424,-0.001098,-0.0023179999999999997,0.0037819999999999998,0.23648056123940367,-0.16544869921075708,-0.08959368605670856
1745333513.083322,-1.011258,0.109739,-0.028853,-0.002379,-0.00244,0.003904,0.23648056123940367,-0.16544869921075708,-0.08959368605670856
1745333513.086711,-1.013515,0.108763,-0.025131999999999998,-0.002379,-0.0023179999999999997,0.0046359999999999995,0.23648056123940367,-0.16544869921075708,-0.08959368605670856
1745333513.0898964,-1.012844,0.111081,-0.028791999999999998,-0.002013,-0.0017079999999999999,0.004514,0.23648056123940367,-0.16544869921075708,-0.08959368605670856
1745333513.092767,-1.011868,0.10797,-0.029341,-0.002257,-0.0017079999999999999,0.004758,0.23648056123940367,-0.16544869921075708,-0.08959368605670856
1745333513.0956168,-1.013027,0.107055,-0.027023,-0.002623,-0.002745,0.005124,0.23648056123940367,-0.16544869921075708,-0.08959368605670856
1745333513.0984504,-1.015223,0.107543,-0.015982,-0.0013419999999999999,-0.002379,0.0040869999999999995,0.23648056123940367,-0.16544869921075708,-0.08959368605670856
1745333513.1012876,-1.012417,0.110471,-0.024827,-0.001403,-0.002806,0.004026,0.23648056123940367,-0.16544869921075708,-0.08959368605670856
1745333513.104104,-1.016748,0.109251,-0.022997,-0.002989,-0.002013,0.0042699999999999995,0.2358959368605671,-0.1660333235895937,-0.08433206664717918
1745333513.1069129,-1.014064,0.09467199999999999,-0.022509,-0.0013419999999999999,-0.001952,0.004758,0.2358959368605671,-0.1660333235895937,-0.08433206664717918
1745333513.109733,-1.015162,0.107421,-0.027755,-0.0025009999999999998,-0.00183,0.0040869999999999995,0.2358959368605671,-0.1660333235895937,-0.08433206664717918
1745333513.1125567,-1.013149,0.107726,-0.026535,-0.002745,-0.002257,0.00488,0.2358959368605671,-0.1660333235895937,-0.08433206664717918
1745333513.1155238,-1.012478,0.109495,-0.029096999999999998,-0.001281,-0.001586,0.004941,0.2358959368605671,-0.1660333235895937,-0.08433206664717918
1745333513.1188607,-1.013698,0.110288,-0.027389,-0.002623,-0.002623,0.004758,0.2358959368605671,-0.1660333235895937,-0.08433206664717918
1745333513.1220322,-1.010709,0.11022699999999999,-0.027023,-0.001281,-0.002623,0.004575,0.2358959368605671,-0.1660333235895937,-0.08433206664717918
1745333513.1249092,-1.01016,0.108153,-0.025681,-0.003111,-0.002745,0.005063,0.2358959368605671,-0.1660333235895937,-0.08433206664717918
1745333513.1278312,-1.01382,0.10614,-0.026108,-0.0017079999999999999,-0.0021349999999999997,0.004941,0.2358959368605671,-0.1660333235895937,-0.08623209587839813
1745333513.1307137,-1.015528,0.10736,-0.029341,-0.002013,-0.002013,0.004392,0.2323881905875475,-0.17187956737795967,-0.08623209587839813
1745333513.1335468,-1.011136,0.10961699999999999,-0.027327999999999998,-0.003111,-0.00244,0.004758,0.2323881905875475,-0.17187956737795967,-0.08623209587839813
1745333513.1363654,-1.010343,0.11022699999999999,-0.025131999999999998,-0.002257,-0.001586,0.0050019999999999995,0.2323881905875475,-0.17187956737795967,-0.08623209587839813
1745333513.1391752,-1.013637,0.10961699999999999,-0.028426,-0.001098,-0.0021349999999999997,0.003965,0.2323881905875475,-0.17187956737795967,-0.08623209587839813
1745333513.1419919,-1.01321,0.107116,-0.023546,-0.002074,-0.0021349999999999997,0.003904,0.2323881905875475,-0.17187956737795967,-0.08623209587839813
1745333513.1448243,-1.014674,0.109129,-0.02501,-0.0030499999999999998,-0.0025009999999999998,0.004697,0.2323881905875475,-0.17187956737795967,-0.08623209587839813
1745333513.1480188,-1.009733,0.10992199999999999,-0.024217,-0.0025009999999999998,-0.001769,0.005307,0.2323881905875475,-0.17187956737795967,-0.08623209587839813
1745333513.151407,-1.011868,0.113399,-0.02684,-0.002074,-0.001464,0.004148,0.2323881905875475,-0.17187956737795967,-0.08623209587839813
1745333513.154388,-1.012234,0.110715,-0.029768,-0.00183,-0.002257,0.004758,0.2347266881028939,-0.17275650394621456,-0.08403975445776089
1745333513.157232,-1.011319,0.106628,-0.030683,-0.003538,-0.0021349999999999997,0.004575,0.2347266881028939,-0.17275650394621456,-0.08403975445776089
1745333513.1600738,-1.014674,0.110715,-0.024217,-0.002745,-0.003355,0.0042699999999999995,0.2347266881028939,-0.17275650394621456,-0.08403975445776089
1745333513.1629195,-1.000949,0.110593,-0.023424,-0.001464,-0.0028669999999999998,0.00488,0.2347266881028939,-0.17275650394621456,-0.08403975445776089
1745333513.165753,-1.015406,0.110105,-0.02867,-0.002013,-0.002379,0.004758,0.2347266881028939,-0.17275650394621456,-0.08403975445776089
1745333513.1685703,-1.014674,0.109068,-0.019825,-0.002013,-0.002196,0.004026,0.2347266881028939,-0.17275650394621456,-0.08403975445776089
1745333513.1713765,-1.015162,0.108214,-0.026900999999999998,-0.002013,-0.002745,0.0050019999999999995,0.2347266881028939,-0.17275650394621456,-0.08403975445776089
1745333513.1741958,-1.015711,0.11022699999999999,-0.025071,-0.00183,-0.0028669999999999998,0.003843,0.2347266881028939,-0.17275650394621456,-0.08403975445776089
1745333513.1770456,-1.012905,0.10931199999999999,-0.019275999999999998,-0.002257,-0.001403,0.004697,0.2347266881028939,-0.17275650394621456,-0.08403975445776089
1745333513.180279,-1.010404,0.107787,-0.027877,-0.002196,-0.002806,0.004514,0.24028061970184156,-0.1645717626425022,-0.083162817889506
1745333513.1835938,-1.011624,0.112667,-0.02562,-0.00183,-0.00244,0.0048189999999999995,0.24028061970184156,-0.1645717626425022,-0.083162817889506
1745333513.1865752,-1.01077,0.111081,-0.025254,-0.002196,-0.0021349999999999997,0.0046359999999999995,0.24028061970184156,-0.1645717626425022,-0.083162817889506
1745333513.1894228,-1.012173,0.109068,-0.023729,-0.0018909999999999999,-0.00183,0.004148,0.24028061970184156,-0.1645717626425022,-0.083162817889506
1745333513.1922467,-1.01443,0.10961699999999999,-0.028731,-0.001769,-0.002013,0.0048189999999999995,0.24028061970184156,-0.1645717626425022,-0.083162817889506
1745333513.1950634,-1.017175,0.108885,-0.027267,-0.002196,-0.001769,0.0046359999999999995,0.24028061970184156,-0.1645717626425022,-0.083162817889506
1745333513.1979203,-1.010099,0.109556,-0.025498,-0.002562,-0.002562,0.0048189999999999995,0.24028061970184156,-0.1645717626425022,-0.083162817889506
1745333513.200742,-1.00833,0.108885,-0.027145,-0.001403,-0.0025009999999999998,0.004514,0.24028061970184156,-0.1645717626425022,-0.083162817889506
1745333513.2035499,-1.015284,0.108031,-0.028059999999999998,-0.0023179999999999997,-0.002196,0.0046359999999999995,0.24028061970184156,-0.1645717626425022,-0.083162817889506
1745333513.206395,-1.011258,0.107055,-0.026413,-0.002562,-0.00244,0.004148,0.2303420052616194,-0.16544869921075708,-0.08710903244665302
1745333513.209234,-1.014186,0.11041,-0.021106,-0.0017079999999999999,-0.00183,0.0046359999999999995,0.2303420052616194,-0.16544869921075708,-0.08710903244665302
1745333513.2124836,-1.017053,0.105957,-0.031049,-0.001769,-0.002623,0.004026,0.2303420052616194,-0.16544869921075708,-0.08710903244665302
1745333513.215775,-1.01138,0.108763,-0.026595999999999998,-0.0025009999999999998,-0.001769,0.004148,0.2303420052616194,-0.16544869921075708,-0.08710903244665302
1745333513.2187588,-1.014003,0.105957,-0.026900999999999998,-0.002623,-0.001464,0.004941,0.2303420052616194,-0.16544869921075708,-0.08710903244665302
1745333513.221604,-1.01138,0.107238,-0.027572,-0.00183,-0.001769,0.004514,0.2303420052616194,-0.16544869921075708,-0.08710903244665302
1745333513.2244236,-1.012905,0.11022699999999999,-0.021411,-0.00244,-0.00183,0.004026,0.2303420052616194,-0.16544869921075708,-0.08710903244665302
1745333513.2272375,-1.01931,0.111691,-0.030560999999999998,-0.0028669999999999998,-0.002196,0.00488,0.2303420052616194,-0.16544869921075708,-0.08710903244665302
1745333513.2300916,-1.013149,0.107177,-0.027877,-0.0025009999999999998,-0.00244,0.004331,0.2303420052616194,-0.16544869921075708,-0.08710903244665302
1745333513.232924,-1.012783,0.107726,-0.026168999999999998,-0.0026839999999999998,-0.002562,0.004697,0.2303420052616194,-0.1616486407483192,-0.08652440806781643
1745333513.235733,-1.011746,0.107238,-0.026047,-0.002928,-0.0021349999999999997,0.0048189999999999995,0.2303420052616194,-0.1616486407483192,-0.08652440806781643
1745333513.2385538,-1.013149,0.109373,-0.027511,-0.0025009999999999998,-0.0026839999999999998,0.004575,0.2303420052616194,-0.1616486407483192,-0.08652440806781643
1745333513.241396,-1.014247,0.107177,-0.025681,-0.00183,-0.002562,0.004331,0.2303420052616194,-0.1616486407483192,-0.08652440806781643
1745333513.2445858,-1.01138,0.110044,-0.023667999999999998,-0.0023179999999999997,-0.002623,0.005307,0.2303420052616194,-0.1616486407483192,-0.08652440806781643
1745333513.2479722,-1.011746,0.10577399999999999,-0.029523999999999998,-0.001952,-0.002013,0.005124,0.2303420052616194,-0.1616486407483192,-0.08652440806781643
1745333513.2509618,-1.015711,0.109861,-0.026900999999999998,-0.001769,-0.003111,0.0055509999999999995,0.2303420052616194,-0.1616486407483192,-0.08652440806781643
1745333513.2538154,-1.015467,0.10729899999999999,-0.024827,-0.002074,-0.001464,0.0042699999999999995,0.2303420052616194,-0.1616486407483192,-0.08652440806781643
1745333513.256642,-1.011746,0.095709,-0.027572,-0.002074,-0.00183,0.0055509999999999995,0.23998830751242325,-0.17012569424144988,-0.08301666179479684
1745333513.2594543,-1.014247,0.109739,-0.029523999999999998,-0.001464,-0.0011589999999999999,0.003843,0.23998830751242325,-0.17012569424144988,-0.08301666179479684
1745333513.262283,-1.010221,0.110959,-0.019398,-0.0028669999999999998,-0.00244,0.0042699999999999995,0.23998830751242325,-0.17012569424144988,-0.08301666179479684
1745333513.2651386,-1.010648,0.109434,-0.026718,-0.002257,-0.0015249999999999999,0.0044529999999999995,0.23998830751242325,-0.17012569424144988,-0.08301666179479684
1745333513.2679942,-1.013027,0.110471,-0.023241,-0.002013,-0.002989,0.004758,0.23998830751242325,-0.17012569424144988,-0.08301666179479684
1745333513.2708132,-1.01504,0.108824,-0.024827,-0.0025009999999999998,-0.002623,0.0050019999999999995,0.23998830751242325,-0.17012569424144988,-0.08301666179479684
1745333513.2736804,-1.011624,0.109434,-0.026291,-0.000915,-0.00183,0.004026,0.23998830751242325,-0.17012569424144988,-0.08301666179479684
1745333513.276985,-1.01199,0.107787,-0.024827,-0.0018909999999999999,-0.002562,0.004575,0.23998830751242325,-0.17012569424144988,-0.08301666179479684
1745333513.280264,-1.014979,0.108092,-0.027023,-0.0021349999999999997,-0.00244,0.004514,0.23998830751242325,-0.17012569424144988,-0.08301666179479684
1745333513.2831373,-1.015894,0.107848,-0.024704999999999998,-0.002379,-0.002562,0.003965,0.24671148786904415,-0.16106401636948262,-0.07833966676410406
1745333513.285975,-1.012722,0.107787,-0.023851,-0.002013,-0.00244,0.004514,0.24671148786904415,-0.16106401636948262,-0.07833966676410406
1745333513.2887967,-1.015711,0.110593,-0.025559,-0.002806,-0.002257,0.004026,0.24671148786904415,-0.16106401636948262,-0.07833966676410406
1745333513.2916045,-1.016992,0.110288,-0.027267,-0.002745,-0.001952,0.004331,0.24671148786904415,-0.16106401636948262,-0.07833966676410406
1745333513.2944255,-1.010709,0.107726,-0.025376,-0.0018909999999999999,-0.002745,0.0035989999999999998,0.24671148786904415,-0.16106401636948262,-0.07833966676410406
1745333513.2973216,-1.013637,0.10790899999999999,-0.028487,-0.001647,-0.0013419999999999999,0.005307,0.24671148786904415,-0.16106401636948262,-0.07833966676410406
1745333513.3001702,-1.012112,0.108641,-0.03111,-0.001952,-0.002379,0.0037819999999999998,0.24671148786904415,-0.16106401636948262,-0.07833966676410406
1745333513.3029897,-1.011014,0.11163,-0.025498,-0.001403,-0.002623,0.004941,0.24671148786904415,-0.16106401636948262,-0.07833966676410406
1745333513.3059962,-1.013576,0.108519,-0.027938,-0.0026839999999999998,-0.001952,0.004575,0.24671148786904415,-0.16106401636948262,-0.07833966676410406
1745333513.3093705,-1.012661,0.105408,-0.02379,-0.001952,-0.002257,0.005124,0.2318035662087109,-0.1601870798012277,-0.0819935691318328
1745333513.3125634,-1.017114,0.124501,-0.026047,-0.0017079999999999999,-0.002379,0.0046359999999999995,0.2318035662087109,-0.1601870798012277,-0.0819935691318328
1745333513.3154097,-1.01565,0.108885,-0.031049,-0.001952,-0.0026839999999999998,0.004392,0.2318035662087109,-0.1601870798012277,-0.0819935691318328
1745333513.3182428,-1.01077,0.109129,-0.030195,-0.002013,-0.002745,0.004758,0.2318035662087109,-0.1601870798012277,-0.0819935691318328
1745333513.3210588,-1.012966,0.11163,-0.021899,-0.0018909999999999999,-0.0025009999999999998,0.004575,0.2318035662087109,-0.1601870798012277,-0.0819935691318328
1745333513.3238807,-1.011197,0.10729899999999999,-0.024949,-0.0026839999999999998,-0.00244,0.004331,0.2318035662087109,-0.1601870798012277,-0.0819935691318328
1745333513.3267047,-1.016321,0.106018,-0.027694,-0.0025009999999999998,-0.002379,0.00488,0.2318035662087109,-0.1601870798012277,-0.0819935691318328
1745333513.3295527,-1.0126,0.108275,-0.025803,-0.002379,-0.002196,0.0044529999999999995,0.2318035662087109,-0.1601870798012277,-0.0819935691318328
1745333513.3323789,-1.01382,0.107848,-0.026657,-0.002196,-0.0025009999999999998,0.004941,0.2318035662087109,-0.1601870798012277,-0.0819935691318328
1745333513.3351934,-1.026264,0.112789,-0.023851,-0.0017079999999999999,-0.002257,0.0042699999999999995,0.2320958783981292,-0.16106401636948262,-0.08798596901490792
1745333513.338188,-1.019188,0.109068,-0.025803,-0.0023179999999999997,-0.002013,0.004392,0.2320958783981292,-0.16106401636948262,-0.08798596901490792
1745333513.3415046,-1.013454,0.109068,-0.024461,-0.001647,-0.0023179999999999997,0.005612,0.2320958783981292,-0.16106401636948262,-0.08798596901490792
1745333513.344686,-1.010099,0.110898,-0.024095,-0.002379,-0.001769,0.0050019999999999995,0.2320958783981292,-0.16106401636948262,-0.08798596901490792
1745333513.3475378,-1.010404,0.10638399999999999,-0.027632999999999998,-0.001403,-0.003355,0.004697,0.2320958783981292,-0.16106401636948262,-0.08798596901490792
1745333513.35037,-1.018395,0.105957,-0.016104,-0.0015249999999999999,-0.0028669999999999998,0.0048189999999999995,0.2320958783981292,-0.16106401636948262,-0.08798596901490792
1745333513.3531919,-1.016138,0.109739,-0.027694,-0.001586,-0.00244,0.004758,0.2320958783981292,-0.16106401636948262,-0.08798596901490792
1745333513.3560271,-1.014125,0.107787,-0.026595999999999998,-0.002013,-0.001769,0.0042699999999999995,0.2320958783981292,-0.16106401636948262,-0.08798596901490792
1745333513.3588374,-1.01016,0.122,-0.028914,-0.002928,-0.001769,0.005246,0.2341420637240573,-0.16954106986261328,-0.07833966676410406
1745333513.3616865,-1.015528,0.109068,-0.031171,-0.002928,-0.002074,0.004209,0.2341420637240573,-0.16954106986261328,-0.07833966676410406
1745333513.3645492,-1.016077,0.10919,-0.02745,-0.001769,-0.0030499999999999998,0.004392,0.2341420637240573,-0.16954106986261328,-0.07833966676410406
1745333513.3673744,-1.016382,0.107055,-0.028791999999999998,-0.0026839999999999998,-0.0040869999999999995,0.004514,0.2341420637240573,-0.16954106986261328,-0.07833966676410406
1745333513.3704016,-1.016138,0.111691,-0.025193,-0.002074,-0.0018909999999999999,0.0046359999999999995,0.2341420637240573,-0.16954106986261328,-0.07833966676410406
1745333513.3737519,-1.018151,0.109251,-0.026718,-0.002257,-0.0030499999999999998,0.005246,0.2341420637240573,-0.16954106986261328,-0.07833966676410406
1745333513.376935,-1.015528,0.106811,-0.029158,-0.0021349999999999997,-0.0018909999999999999,0.004697,0.2341420637240573,-0.16954106986261328,-0.07833966676410406
1745333513.3797815,-1.007598,0.109556,-0.025498,-0.0021349999999999997,-0.0013419999999999999,0.0048189999999999995,0.2341420637240573,-0.16954106986261328,-0.07833966676410406
1745333513.3826156,-1.006195,0.10858,-0.026047,-0.002196,-0.002745,0.004514,0.2341420637240573,-0.16954106986261328,-0.07833966676410406
1745333513.3854342,-1.012478,0.10790899999999999,-0.027145,-0.001586,-0.003355,0.004941,0.2332651271558024,-0.16515638702133878,-0.07600116924875767
1745333513.3882802,-1.018578,0.107482,-0.029402,-0.0015249999999999999,-0.002989,0.004575,0.2332651271558024,-0.16515638702133878,-0.07600116924875767
1745333513.391579,-1.012661,0.110105,-0.020191,-0.002257,-0.000976,0.0042699999999999995,0.2332651271558024,-0.16515638702133878,-0.07600116924875767
1745333513.3946896,-1.014674,0.105347,-0.024522,-0.003172,-0.001586,0.0055509999999999995,0.2332651271558024,-0.16515638702133878,-0.07600116924875767
1745333513.3976295,-1.012783,0.109556,-0.029585,-0.002257,-0.0023179999999999997,0.004941,0.2332651271558024,-0.16515638702133878,-0.07600116924875767
1745333513.4013326,-1.00711,0.11053199999999999,-0.02745,-0.0025009999999999998,-0.002257,0.004392,0.2332651271558024,-0.16515638702133878,-0.07600116924875767
1745333513.4053679,-1.009733,0.109739,-0.02379,-0.0021349999999999997,-0.0025009999999999998,0.003904,0.2332651271558024,-0.16515638702133878,-0.07600116924875767
1745333513.4086301,-1.017358,0.109068,-0.02928,-0.001464,-0.003111,0.004697,0.2332651271558024,-0.16515638702133878,-0.07600116924875767
1745333513.4116507,-1.011807,0.107787,-0.026047,-0.0015249999999999999,-0.002196,0.004331,0.2344343759134756,-0.17012569424144988,-0.07760888629055832
1745333513.4145162,-1.012051,0.106201,-0.022203999999999998,-0.00183,-0.002623,0.004331,0.2344343759134756,-0.17012569424144988,-0.07760888629055832
1745333513.417348,-1.012905,0.109861,-0.028609,-0.002074,-0.0018909999999999999,0.0046359999999999995,0.2344343759134756,-0.17012569424144988,-0.07760888629055832
1745333513.4201715,-1.006683,0.108275,-0.022875,-0.0021349999999999997,-0.00183,0.005612,0.2344343759134756,-0.17012569424144988,-0.07760888629055832
1745333513.422983,-1.010404,0.106262,-0.026168999999999998,-0.002013,-0.002989,0.0046359999999999995,0.2344343759134756,-0.17012569424144988,-0.07760888629055832
1745333513.425803,-1.012783,0.109251,-0.025681,-0.00244,-0.0028669999999999998,0.0044529999999999995,0.2344343759134756,-0.17012569424144988,-0.07760888629055832
1745333513.4286246,-1.011929,0.109678,-0.021655,-0.0017079999999999999,-0.0026839999999999998,0.004331,0.2344343759134756,-0.17012569424144988,-0.07760888629055832
1745333513.4314773,-1.018212,0.108275,-0.027755,-0.001464,-0.002928,0.004148,0.2344343759134756,-0.17012569424144988,-0.07760888629055832
1745333513.434498,-1.009001,0.110105,-0.02196,-0.0034159999999999998,-0.002013,0.003904,0.2344343759134756,-0.17012569424144988,-0.07760888629055832
1745333513.437857,-1.008818,0.113277,-0.02623,-0.0017079999999999999,-0.0018909999999999999,0.003843,0.2347266881028939,-0.1648640748319205,-0.08301666179479684
1745333513.44105,-1.012051,0.107482,-0.024949,-0.0015249999999999999,-0.002379,0.004331,0.2347266881028939,-0.1648640748319205,-0.08301666179479684
1745333513.4439,-1.012783,0.108214,-0.023729,-0.002074,-0.0021349999999999997,0.0050019999999999995,0.2347266881028939,-0.1648640748319205,-0.08301666179479684
1745333513.4467747,-1.015894,0.104493,-0.027999,-0.001586,-0.0037819999999999998,0.004758,0.2347266881028939,-0.1648640748319205,-0.08301666179479684
1745333513.4496145,-1.020652,0.110776,-0.028059999999999998,-0.003294,-0.0037819999999999998,0.004331,0.2347266881028939,-0.1648640748319205,-0.08301666179479684
1745333513.452458,-1.017907,0.112179,-0.023302,-0.0023179999999999997,-0.00244,0.0040869999999999995,0.2347266881028939,-0.1648640748319205,-0.08301666179479684
1745333513.4553843,-1.01321,0.112179,-0.035258,-0.002013,0.002623,0.00488,0.2347266881028939,-0.1648640748319205,-0.08301666179479684
1745333513.4582293,-1.015589,0.109373,-0.031476,-0.003172,-0.005978,0.0044529999999999995,0.2347266881028939,-0.1648640748319205,-0.08301666179479684
1745333513.4610553,-1.010465,0.104005,-0.027999,-0.001647,-0.0023179999999999997,0.005124,0.2347266881028939,-0.17334112832505116,-0.08038585209003216
1745333513.4639132,-1.011319,0.105652,-0.029951,-0.0008539999999999999,-0.002379,0.003904,0.2361882490499854,-0.17334112832505116,-0.08038585209003216
1745333513.4671247,-1.014552,0.108153,-0.028853,-0.002074,-0.003904,0.0050019999999999995,0.2361882490499854,-0.17334112832505116,-0.08038585209003216
1745333513.4704895,-1.00772,0.10992199999999999,-0.023912,-0.001586,6.1e-05,0.004758,0.2361882490499854,-0.17334112832505116,-0.08038585209003216
1745333513.4734848,-1.011624,0.106201,-0.03477,-0.002074,-0.0026839999999999998,0.00549,0.2361882490499854,-0.17334112832505116,-0.08038585209003216
1745333513.47633,-1.019188,0.10760399999999999,-0.018543999999999998,-0.0013419999999999999,-0.0044529999999999995,0.0044529999999999995,0.2361882490499854,-0.17334112832505116,-0.08038585209003216
1745333513.479159,-1.010709,0.106018,-0.025742,-0.0021349999999999997,-0.002013,0.002928,0.2361882490499854,-0.17334112832505116,-0.08038585209003216
1745333513.482025,-1.01016,0.104859,-0.030255999999999998,-0.001403,-0.003111,0.005307,0.2361882490499854,-0.17334112832505116,-0.08038585209003216
1745333513.4848607,-1.018334,0.109251,-0.021106,-0.0018909999999999999,-0.004209,0.005673,0.2361882490499854,-0.17334112832505116,-0.08038585209003216
1745333513.4877098,-1.016016,0.107665,-0.02318,-0.001647,-0.0008539999999999999,0.004697,0.2306343174510377,-0.1666179479684303,-0.0903244665302543
1745333513.4911199,-1.017602,0.10790899999999999,-0.029768,-0.002745,-0.0008539999999999999,0.0037819999999999998,0.2306343174510377,-0.1666179479684303,-0.0903244665302543
1745333513.4942038,-1.009367,0.11022699999999999,-0.027694,-0.00183,-0.002928,0.0044529999999999995,0.2306343174510377,-0.1666179479684303,-0.0903244665302543
1745333513.4972584,-1.011197,0.105591,-0.029036,-0.0018909999999999999,-0.002074,0.004026,0.2306343174510377,-0.1666179479684303,-0.0903244665302543
1745333513.5006313,-1.011807,0.111386,-0.025863999999999998,-0.002562,-0.0030499999999999998,0.004331,0.2306343174510377,-0.1666179479684303,-0.0903244665302543
1745333513.5037851,-1.021018,0.107543,-0.022143,-0.002806,-0.002196,0.004758,0.2306343174510377,-0.1666179479684303,-0.0903244665302543
1745333513.5066595,-1.009794,0.110593,-0.024278,-0.00183,-0.0017079999999999999,0.00366,0.2306343174510377,-0.1666179479684303,-0.0903244665302543
1745333513.5095122,-1.007537,0.10614,-0.029951,-0.001281,-0.0026839999999999998,0.005246,0.2306343174510377,-0.1666179479684303,-0.0903244665302543
1745333513.512345,-1.011807,0.110044,-0.023058,-0.0028669999999999998,-0.003111,0.0042699999999999995,0.2306343174510377,-0.16866413329435836,-0.08550131540485238
1745333513.5151937,-1.015467,0.108702,-0.027938,-0.002623,-0.002623,0.004209,0.2323881905875475,-0.16866413329435836,-0.08550131540485238
1745333513.518024,-1.017114,0.10790899999999999,-0.020252,-0.002379,-0.00183,0.0048189999999999995,0.2323881905875475,-0.16866413329435836,-0.08550131540485238
1745333513.52088,-1.014552,0.109068,-0.024704999999999998,-0.0026839999999999998,-0.002379,0.003904,0.2323881905875475,-0.16866413329435836,-0.08550131540485238
1745333513.5236983,-1.014613,0.108824,-0.025071,-0.001586,-0.00244,0.005429,0.2323881905875475,-0.16866413329435836,-0.08550131540485238
1745333513.5265553,-1.014979,0.108824,-0.024339,-0.0015249999999999999,-0.0023179999999999997,0.0046359999999999995,0.2323881905875475,-0.16866413329435836,-0.08550131540485238
1745333513.529759,-1.013576,0.10797,-0.025498,-0.0011589999999999999,-0.001769,0.004209,0.2323881905875475,-0.16866413329435836,-0.08550131540485238
1745333513.5332024,-1.010099,0.107177,-0.029036,-0.001098,-0.0015249999999999999,0.004392,0.2323881905875475,-0.16866413329435836,-0.08550131540485238
1745333513.5362144,-1.012722,0.10919,-0.027632999999999998,-0.0032329999999999998,-0.0028669999999999998,0.004148,0.2323881905875475,-0.16866413329435836,-0.08550131540485238
1745333513.5390542,-1.016077,0.107177,-0.026291,-0.002562,-0.003111,0.003965,0.22888044431452792,-0.17100263080970476,-0.08681672025723473
1745333513.5418942,-1.014308,0.10668899999999999,-0.024827,-0.000915,-0.0011589999999999999,0.004148,0.22888044431452792,-0.17100263080970476,-0.08681672025723473
1745333513.5447214,-1.011441,0.105896,-0.023546,-0.001769,-0.00183,0.0051849999999999995,0.22888044431452792,-0.17100263080970476,-0.08681672025723473
1745333513.547559,-1.009916,0.107482,-0.030622,-0.0017079999999999999,-0.001952,0.004026,0.22888044431452792,-0.17100263080970476,-0.08681672025723473
1745333513.5503962,-1.012112,0.106445,-0.029096999999999998,-0.0015249999999999999,-0.003172,0.0050019999999999995,0.22888044431452792,-0.17100263080970476,-0.08681672025723473
1745333513.553218,-1.015345,0.10900699999999999,-0.026291,-0.001403,-0.002928,0.0042699999999999995,0.22888044431452792,-0.17100263080970476,-0.08681672025723473
1745333513.5560505,-1.011807,0.110349,-0.026047,-0.0021349999999999997,-0.002196,0.0053679999999999995,0.22888044431452792,-0.17100263080970476,-0.08681672025723473
1745333513.5589235,-1.013942,0.11053199999999999,-0.029036,-0.002623,-0.002196,0.0050019999999999995,0.22888044431452792,-0.17100263080970476,-0.08681672025723473
1745333513.5623436,-1.01504,0.108702,-0.025071,-0.001769,-0.00183,0.005063,0.22888044431452792,-0.17100263080970476,-0.08681672025723473
1745333513.5655973,-1.016504,0.108092,-0.027023,-0.00183,-0.0025009999999999998,0.004209,0.22888044431452792,-0.16895644548377667,-0.08550131540485238
1745333513.5684564,-1.012539,0.112606,-0.028182,-0.002379,-0.001952,0.004575,0.22888044431452792,-0.16895644548377667,-0.08550131540485238
1745333513.571281,-1.003023,0.108275,-0.023546,-0.002074,-0.0028669999999999998,0.003965,0.22888044431452792,-0.16895644548377667,-0.08550131540485238
1745333513.5741074,-1.011868,0.107055,-0.027023,-0.002623,-0.0030499999999999998,0.004514,0.22888044431452792,-0.16895644548377667,-0.08550131540485238
1745333513.5769255,-1.015345,0.11053199999999999,-0.027267,-0.00244,-0.003111,0.004575,0.22888044431452792,-0.16895644548377667,-0.08550131540485238
1745333513.5797625,-1.013088,0.10992199999999999,-0.027084,-0.002257,-0.0023179999999999997,0.004392,0.22888044431452792,-0.16895644548377667,-0.08550131540485238
1745333513.5825982,-1.010465,0.110166,-0.022265,-0.002379,-0.001464,0.005307,0.22888044431452792,-0.16895644548377667,-0.08550131540485238
1745333513.585419,-1.01443,0.107848,-0.029951,-0.0025009999999999998,-0.001647,0.004758,0.22888044431452792,-0.16895644548377667,-0.08550131540485238
1745333513.5882442,-1.015772,0.09467199999999999,-0.027206,-0.001769,-0.002013,0.0050019999999999995,0.22888044431452792,-0.16895644548377667,-0.08550131540485238
1745333513.591224,-1.010648,0.108458,-0.021045,-0.002074,-0.002806,0.004575,0.23881905875475007,-0.17655656240865245,-0.08783981292019877
1745333513.594571,-1.013637,0.108031,-0.02562,-0.002745,-0.002196,0.00488,0.23881905875475007,-0.17655656240865245,-0.08783981292019877
1745333513.5978372,-1.014247,0.107116,-0.028121,-0.001586,-0.003111,0.004331,0.23881905875475007,-0.17655656240865245,-0.08783981292019877
1745333513.6007247,-1.013759,0.106201,-0.026168999999999998,-0.0017079999999999999,-0.0018909999999999999,0.0042699999999999995,0.23881905875475007,-0.17655656240865245,-0.08783981292019877
1745333513.603558,-1.012417,0.106628,-0.026900999999999998,-0.0015249999999999999,-0.002074,0.0044529999999999995,0.23881905875475007,-0.17655656240865245,-0.08783981292019877
1745333513.6063852,-1.012051,0.109983,-0.021777,-0.0017079999999999999,-0.002257,0.004575,0.23881905875475007,-0.17655656240865245,-0.08783981292019877
1745333513.6092145,-1.013149,0.10919,-0.025742,-0.0011589999999999999,-0.0025009999999999998,0.004026,0.23881905875475007,-0.17655656240865245,-0.08783981292019877
1745333513.6129475,-1.013393,0.106933,-0.027938,-0.00244,-0.002623,0.004514,0.23881905875475007,-0.17655656240865245,-0.08783981292019877
1745333513.6158438,-1.015711,0.11041,-0.023058,-0.0015249999999999999,-0.0023179999999999997,0.0042699999999999995,0.2306343174510377,-0.16749488453668518,-0.08973984215141771
1745333513.6186886,-1.016992,0.10699399999999999,-0.026779,-0.002379,-0.0013419999999999999,0.004575,0.2306343174510377,-0.16749488453668518,-0.08973984215141771
1745333513.621542,-1.01565,0.094489,-0.028853,-0.0025009999999999998,-0.001647,0.005307,0.2306343174510377,-0.16749488453668518,-0.08973984215141771
1745333513.6247516,-1.010404,0.10699399999999999,-0.021289,-0.0025009999999999998,-0.001281,0.004575,0.2306343174510377,-0.16749488453668518,-0.08973984215141771
1745333513.6281292,-1.010465,0.106018,-0.02928,-0.002257,-0.002257,0.0050019999999999995,0.2306343174510377,-0.16749488453668518,-0.08973984215141771
1745333513.631125,-1.000034,0.10668899999999999,-0.029463,-0.002257,-0.0028669999999999998,0.004514,0.2306343174510377,-0.16749488453668518,-0.08973984215141771
1745333513.6339774,-1.014674,0.107848,-0.029523999999999998,-0.002013,-0.002928,0.0037819999999999998,0.2306343174510377,-0.16749488453668518,-0.08973984215141771
1745333513.6368136,-1.016931,0.110471,-0.027511,-0.0034159999999999998,-0.002745,0.0040869999999999995,0.2306343174510377,-0.16749488453668518,-0.08973984215141771
1745333513.6396294,-1.00955,0.10992199999999999,-0.02562,-0.002074,-0.0025009999999999998,0.004941,0.2306343174510377,-0.16749488453668518,-0.08973984215141771
1745333513.6424506,-1.010038,0.10797,-0.029463,-0.0018909999999999999,-0.0017079999999999999,0.0059169999999999995,0.2344343759134756,-0.17129494299912307,-0.08097047646886875
1745333513.6452749,-1.014369,0.094184,-0.031659,-0.002806,-0.0018909999999999999,0.0040869999999999995,0.2344343759134756,-0.17129494299912307,-0.08097047646886875
1745333513.6481345,-1.01321,0.108214,-0.023119,-0.002257,-0.00183,0.004209,0.2344343759134756,-0.17129494299912307,-0.08097047646886875
1745333513.6509533,-1.014308,0.107055,-0.028487,-0.002257,-0.0028669999999999998,0.00488,0.2344343759134756,-0.17129494299912307,-0.08097047646886875
1745333513.653832,-1.014918,0.108763,-0.030012,-0.002074,-0.00244,0.005307,0.2344343759134756,-0.17129494299912307,-0.08097047646886875
1745333513.6571941,-1.013942,0.109129,-0.025863999999999998,-0.002379,-0.0025009999999999998,0.0051849999999999995,0.2344343759134756,-0.17129494299912307,-0.08097047646886875
1745333513.6605108,-1.013881,0.10900699999999999,-0.026108,-0.0028669999999999998,-0.002013,0.005063,0.2344343759134756,-0.17129494299912307,-0.08097047646886875
1745333513.6633625,-1.013027,0.108824,-0.024949,-0.001769,-0.002196,0.004514,0.2344343759134756,-0.17129494299912307,-0.08097047646886875
1745333513.6661992,-1.008757,0.107116,-0.025071,-0.00122,-0.002013,0.004392,0.2326805027769658,-0.1625255773165741,-0.08097047646886875
1745333513.6690202,-1.010709,0.093696,-0.025376,-0.002989,-0.0030499999999999998,0.004575,0.2326805027769658,-0.1625255773165741,-0.08097047646886875
1745333513.6718297,-1.017419,0.103944,-0.029523999999999998,-0.0025009999999999998,-0.0032329999999999998,0.0042699999999999995,0.2326805027769658,-0.1625255773165741,-0.08097047646886875
1745333513.6746538,-1.011014,0.107238,-0.023972999999999998,-0.00183,-0.001647,0.004331,0.2326805027769658,-0.1625255773165741,-0.08097047646886875
1745333513.677501,-1.011685,0.108031,-0.02196,-0.001586,-0.002196,0.005246,0.2326805027769658,-0.1625255773165741,-0.08097047646886875
1745333513.6803582,-1.013088,0.10492,-0.032513,-0.002257,-0.002989,0.005307,0.2326805027769658,-0.1625255773165741,-0.08097047646886875
1745333513.6831822,-1.007903,0.107421,-0.022265,-0.0025009999999999998,-0.003477,0.004331,0.2326805027769658,-0.1625255773165741,-0.08097047646886875
1745333513.6862152,-1.015223,0.11083699999999999,-0.027938,-0.002074,-0.002562,0.004697,0.2326805027769658,-0.1625255773165741,-0.08097047646886875
1745333513.689554,-1.00711,0.109678,-0.025131999999999998,-0.00183,-0.0023179999999999997,0.005124,0.2326805027769658,-0.1625255773165741,-0.08097047646886875
1745333513.6927376,-1.009245,0.110471,-0.02562,-0.001037,-0.0017079999999999999,0.0044529999999999995,0.22566501023092664,-0.1648640748319205,-0.08360128617363344
1745333513.6955912,-1.015345,0.111447,-0.030927,-0.002379,-0.0028669999999999998,0.004941,0.22566501023092664,-0.1648640748319205,-0.08360128617363344
