Timestamp,Accel X,Accel Y,Accel Z,Gyro X,Gyro Y,Gyro Z,Magneto X,Magneto Y,Magneto Z
1745333466.393057,-1.009184,0.10760399999999999,-0.027023,-0.001403,-0.0011589999999999999,0.0051849999999999995,0.23092662964045602,-0.1645717626425022,-0.08710903244665302
1745333466.3961937,-1.005768,0.108946,-0.030866,-0.0021349999999999997,-0.001769,0.0051849999999999995,0.23092662964045602,-0.1645717626425022,-0.08710903244665302
1745333466.3991299,-1.013332,0.109129,-0.028975,-0.002074,-0.002379,0.0044529999999999995,0.23092662964045602,-0.1645717626425022,-0.08710903244665302
1745333466.4022236,-1.016199,0.108153,-0.026718,-0.0021349999999999997,-0.003111,0.0040869999999999995,0.2356036246711488,-0.17187956737795967,-0.08988599824612686
1745333466.4058778,-1.019493,0.10931199999999999,-0.027327999999999998,-0.002196,-0.002928,0.004941,0.2356036246711488,-0.17187956737795967,-0.08988599824612686
1745333466.4089637,-1.014979,0.109251,-0.022814,-0.0028669999999999998,-0.0021349999999999997,0.0050019999999999995,0.2356036246711488,-0.17187956737795967,-0.08988599824612686
1745333466.4119434,-1.012722,0.1098,-0.024339,-0.001952,-0.002257,0.004026,0.2356036246711488,-0.17187956737795967,-0.08988599824612686
1745333466.414856,-1.009184,0.109495,-0.027206,-0.002562,-0.00244,0.004148,0.2356036246711488,-0.17187956737795967,-0.08988599824612686
1745333466.417809,-1.007293,0.106933,-0.025436999999999998,-0.001952,-0.0025009999999999998,0.00488,0.2356036246711488,-0.17187956737795967,-0.08988599824612686
1745333466.4222882,-1.012051,0.10900699999999999,-0.02562,-0.00244,-0.002806,0.004209,0.2356036246711488,-0.17187956737795967,-0.08988599824612686
1745333466.425592,-1.016992,0.109068,-0.026352,-0.0018909999999999999,-0.001464,0.004758,0.2356036246711488,-0.17187956737795967,-0.08988599824612686
1745333466.428662,-1.014308,0.10797,-0.023058,-0.001464,-0.000488,0.004941,0.2356036246711488,-0.17187956737795967,-0.08988599824612686
1745333466.4316137,-1.009306,0.11083699999999999,-0.026413,-0.001647,-0.001037,0.0046359999999999995,0.2356036246711488,-0.17187956737795967,-0.08988599824612686
1745333466.434478,-1.011197,0.10900699999999999,-0.027389,-0.002013,-0.00183,0.004331,0.2356036246711488,-0.17187956737795967,-0.08988599824612686
1745333466.4373143,-1.008513,0.107787,-0.027327999999999998,-0.002257,-0.0021349999999999997,0.004514,0.2356036246711488,-0.17187956737795967,-0.08988599824612686
1745333466.4401474,-1.010465,0.107055,-0.024583,-0.002623,-0.0032329999999999998,0.004758,0.2356036246711488,-0.17187956737795967,-0.08988599824612686
1745333466.4429975,-1.017663,0.106933,-0.024522,-0.0025009999999999998,-0.002989,0.0044529999999999995,0.2356036246711488,-0.17187956737795967,-0.08988599824612686
1745333466.4458327,-1.017602,0.109495,-0.023485,-0.0025009999999999998,-0.003172,0.0044529999999999995,0.2356036246711488,-0.17187956737795967,-0.08988599824612686
1745333466.4486737,-1.015589,0.107482,-0.026413,-0.002257,-0.002989,0.0042699999999999995,0.2356036246711488,-0.17187956737795967,-0.08988599824612686
1745333466.4514947,-1.011563,0.108031,-0.02135,-0.001586,-0.002989,0.004392,0.22917275650394622,-0.17129494299912307,-0.0903244665302543
1745333466.4544876,-1.010404,0.106628,-0.025254,-0.00183,-0.0026839999999999998,0.004148,0.22917275650394622,-0.17129494299912307,-0.0903244665302543
1745333466.4577694,-1.014796,0.10577399999999999,-0.027023,-0.00244,-0.002623,0.00488,0.22917275650394622,-0.17129494299912307,-0.0903244665302543
1745333466.4609773,-1.016504,0.110044,-0.025498,-0.00244,-0.002623,0.005124,0.22917275650394622,-0.17129494299912307,-0.0903244665302543
1745333466.4638193,-1.016504,0.10900699999999999,-0.026657,-0.002379,-0.002379,0.00488,0.22917275650394622,-0.17129494299912307,-0.0903244665302543
1745333466.4666479,-1.016016,0.10797,-0.021167,-0.002074,-0.0021349999999999997,0.0050019999999999995,0.22917275650394622,-0.17129494299912307,-0.0903244665302543
1745333466.4694679,-1.014186,0.10858,-0.02684,-0.0018909999999999999,-0.0018909999999999999,0.005124,0.22917275650394622,-0.17129494299912307,-0.0903244665302543
1745333466.4723155,-1.01016,0.109861,-0.023607,-0.0018909999999999999,-0.001769,0.004758,0.22917275650394622,-0.17129494299912307,-0.0903244665302543
1745333466.4751623,-1.008574,0.108885,-0.025559,-0.002257,-0.00183,0.00488,0.22917275650394622,-0.17129494299912307,-0.0903244665302543
1745333466.4779959,-1.009916,0.108275,-0.029463,-0.001952,-0.0030499999999999998,0.004697,0.22917275650394622,-0.17129494299912307,-0.0903244665302543
1745333466.4808135,-1.013576,0.10919,-0.027632999999999998,-0.002257,-0.00366,0.0050019999999999995,0.22917275650394622,-0.17129494299912307,-0.0903244665302543
1745333466.483627,-1.014247,0.109739,-0.024522,-0.0025009999999999998,-0.003477,0.004331,0.22917275650394622,-0.17129494299912307,-0.0903244665302543
1745333466.4866226,-1.014857,0.109251,-0.02623,-0.001952,-0.002562,0.004331,0.22917275650394622,-0.17129494299912307,-0.0903244665302543
1745333466.4902122,-1.01077,0.110166,-0.023241,-0.002196,-0.002196,0.004697,0.22917275650394622,-0.17129494299912307,-0.0903244665302543
1745333466.4934442,-1.011441,0.108763,-0.025436999999999998,-0.00244,-0.0025009999999999998,0.005124,0.22917275650394622,-0.17129494299912307,-0.0903244665302543
1745333466.4963298,-1.011746,0.111081,-0.02501,-0.0023179999999999997,-0.002379,0.0044529999999999995,0.22917275650394622,-0.17129494299912307,-0.0903244665302543
1745333466.4991481,-1.012905,0.109068,-0.02501,-0.00244,-0.002745,0.004392,0.22917275650394622,-0.17129494299912307,-0.0903244665302543
1745333466.5019698,-1.01382,0.108092,-0.023119,-0.002074,-0.002745,0.005063,0.22917275650394622,-0.17129494299912307,-0.0903244665302543
1745333466.504785,-1.014308,0.093757,-0.023485,-0.002013,-0.0025009999999999998,0.005124,0.2323881905875475,-0.1639871382636656,-0.08696287635194387
1745333466.5076005,-1.013027,0.108336,-0.025681,-0.001464,-0.002074,0.00488,0.2323881905875475,-0.1639871382636656,-0.08696287635194387
1745333466.510466,-1.014491,0.108641,-0.023912,-0.0018909999999999999,-0.001586,0.004758,0.2323881905875475,-0.1639871382636656,-0.08696287635194387
1745333466.5132954,-1.014674,0.109434,-0.028059999999999998,-0.001403,-0.001586,0.0050019999999999995,0.2323881905875475,-0.1639871382636656,-0.08696287635194387
1745333466.516137,-1.013149,0.107787,-0.02928,-0.00183,-0.0023179999999999997,0.0042699999999999995,0.2323881905875475,-0.1639871382636656,-0.08696287635194387
1745333466.5192695,-1.009916,0.10931199999999999,-0.02501,-0.002257,-0.0030499999999999998,0.00488,0.2323881905875475,-0.1639871382636656,-0.08696287635194387
1745333466.5232413,-1.016565,0.107177,-0.026168999999999998,-0.002562,-0.002989,0.004514,0.2323881905875475,-0.1639871382636656,-0.08696287635194387
1745333466.5262976,-1.03029,0.108214,-0.023119,-0.0023179999999999997,-0.0026839999999999998,0.0048189999999999995,0.2323881905875475,-0.1639871382636656,-0.08696287635194387
1745333466.5292816,-1.015955,0.108519,-0.028059999999999998,-0.0018909999999999999,-0.002928,0.0050019999999999995,0.2323881905875475,-0.1639871382636656,-0.08696287635194387
1745333466.532223,-1.012051,0.107238,-0.023729,-0.0018909999999999999,-0.002623,0.0050019999999999995,0.2323881905875475,-0.1639871382636656,-0.08696287635194387
1745333466.5351512,-1.011197,0.109068,-0.024583,-0.002074,-0.0021349999999999997,0.004331,0.2323881905875475,-0.1639871382636656,-0.08696287635194387
1745333466.538089,-1.013027,0.094855,-0.024217,-0.0021349999999999997,-0.0025009999999999998,0.0050019999999999995,0.2323881905875475,-0.1639871382636656,-0.08696287635194387
1745333466.5410311,-1.015833,0.107238,-0.027511,-0.001586,-0.002013,0.0048189999999999995,0.2323881905875475,-0.1639871382636656,-0.08696287635194387
1745333466.543915,-1.019371,0.108275,-0.024095,-0.001769,-0.0028669999999999998,0.0044529999999999995,0.2323881905875475,-0.1639871382636656,-0.08696287635194387
1745333466.5474563,-1.016321,0.109129,-0.024461,-0.002257,-0.002196,0.004941,0.2323881905875475,-0.1639871382636656,-0.08696287635194387
1745333466.5505178,-1.011929,0.10577399999999999,-0.026413,-0.002074,-0.0017079999999999999,0.004941,0.2323881905875475,-0.1639871382636656,-0.08696287635194387
1745333466.5545142,-1.007598,0.108092,-0.024949,-0.002013,-0.0026839999999999998,0.004392,0.23823443437591346,-0.166325635779012,-0.08959368605670856
1745333466.5577326,-1.013881,0.108885,-0.028975,-0.0018909999999999999,-0.002928,0.0044529999999999995,0.23823443437591346,-0.166325635779012,-0.08959368605670856
1745333466.5606055,-1.015284,0.10858,-0.028548,-0.002196,-0.002562,0.0044529999999999995,0.23823443437591346,-0.166325635779012,-0.08959368605670856
1745333466.56342,-1.014674,0.108885,-0.025863999999999998,-0.002806,-0.0023179999999999997,0.004209,0.23823443437591346,-0.166325635779012,-0.08959368605670856
1745333466.5662448,-1.015955,0.109861,-0.025559,-0.002379,-0.001586,0.004148,0.23823443437591346,-0.166325635779012,-0.08959368605670856
1745333466.5690632,-1.000827,0.108397,-0.024522,-0.00183,-0.0017079999999999999,0.004209,0.23823443437591346,-0.166325635779012,-0.08959368605670856
1745333466.5719059,-1.015162,0.108153,-0.024339,-0.001647,-0.001952,0.004697,0.23823443437591346,-0.166325635779012,-0.08959368605670856
1745333466.5747316,-1.01138,0.111264,-0.022021,-0.001769,-0.002196,0.0044529999999999995,0.23823443437591346,-0.166325635779012,-0.08959368605670856
1745333466.5775905,-1.01504,0.109861,-0.025254,-0.002074,-0.0015249999999999999,0.004331,0.23823443437591346,-0.166325635779012,-0.08959368605670856
1745333466.580456,-1.012539,0.11083699999999999,-0.021899,-0.002257,-0.00244,0.004514,0.23823443437591346,-0.166325635779012,-0.08959368605670856
1745333466.5837667,-1.012478,0.108946,-0.025498,-0.00183,-0.0025009999999999998,0.004697,0.23823443437591346,-0.166325635779012,-0.08959368605670856
1745333466.5870795,-1.011563,0.109434,-0.022997,-0.0018909999999999999,-0.002562,0.004758,0.23823443437591346,-0.166325635779012,-0.08959368605670856
1745333466.5899513,-1.013515,0.106933,-0.026657,-0.00183,-0.0025009999999999998,0.00488,0.23823443437591346,-0.166325635779012,-0.08959368605670856
1745333466.592824,-1.012112,0.109129,-0.026352,-0.0021349999999999997,-0.00244,0.004331,0.23823443437591346,-0.166325635779012,-0.08959368605670856
1745333466.595646,-1.014369,0.10699399999999999,-0.023424,-0.002074,-0.00244,0.0046359999999999995,0.23823443437591346,-0.166325635779012,-0.08959368605670856
1745333466.5984752,-1.014857,0.108641,-0.027816,-0.001952,-0.0023179999999999997,0.00488,0.23823443437591346,-0.166325635779012,-0.08959368605670856
1745333466.6012921,-1.011868,0.109678,-0.02196,-0.002379,-0.002562,0.004514,0.23823443437591346,-0.166325635779012,-0.08959368605670856
1745333466.6041057,-1.01504,0.108641,-0.025742,-0.002623,-0.0025009999999999998,0.004514,0.23823443437591346,-0.166325635779012,-0.08959368605670856
1745333466.6069143,-1.012234,0.108641,-0.024888,-0.002623,-0.002562,0.004392,0.23677287342882197,-0.16720257234726688,-0.0811166325635779
1745333466.6097462,-1.015345,0.107238,-0.024704999999999998,-0.00244,-0.0023179999999999997,0.0048189999999999995,0.23677287342882197,-0.16720257234726688,-0.0811166325635779
1745333466.6127508,-1.014735,0.10797,-0.022265,-0.001403,-0.002074,0.004697,0.23677287342882197,-0.16720257234726688,-0.0811166325635779
1745333466.6161182,-1.012661,0.110471,-0.022021,-0.0026839999999999998,-0.001647,0.004392,0.23677287342882197,-0.16720257234726688,-0.0811166325635779
1745333466.619322,-1.00894,0.108824,-0.026900999999999998,-0.001769,-0.00183,0.0046359999999999995,0.23677287342882197,-0.16720257234726688,-0.0811166325635779
1745333466.6221943,-1.015223,0.107421,-0.026291,-0.001952,-0.002074,0.005307,0.23677287342882197,-0.16720257234726688,-0.0811166325635779
1745333466.6250718,-1.014308,0.108031,-0.025925,-0.001769,-0.002379,0.004514,0.23677287342882197,-0.16720257234726688,-0.0811166325635779
1745333466.6279023,-1.013149,0.109556,-0.025498,-0.001952,-0.002562,0.0042699999999999995,0.23677287342882197,-0.16720257234726688,-0.0811166325635779
1745333466.6307917,-1.013881,0.12425699999999999,-0.024644,-0.001952,-0.0025009999999999998,0.004575,0.23677287342882197,-0.16720257234726688,-0.0811166325635779
1745333466.6336634,-1.011197,0.10790899999999999,-0.025254,-0.00183,-0.003355,0.004209,0.23677287342882197,-0.16720257234726688,-0.0811166325635779
1745333466.6364918,-1.016016,0.109251,-0.02562,-0.00183,-0.0023179999999999997,0.004392,0.23677287342882197,-0.16720257234726688,-0.0811166325635779
1745333466.6393037,-1.012417,0.108031,-0.025436999999999998,-0.001769,-0.0025009999999999998,0.0044529999999999995,0.23677287342882197,-0.16720257234726688,-0.0811166325635779
1745333466.642171,-1.011807,0.108092,-0.02318,-0.002196,-0.002257,0.004331,0.23677287342882197,-0.16720257234726688,-0.0811166325635779
1745333466.6453533,-1.014003,0.108092,-0.025986,-0.002257,-0.002257,0.004575,0.23677287342882197,-0.16720257234726688,-0.0811166325635779
1745333466.648823,-1.014918,0.1098,-0.025131999999999998,-0.0023179999999999997,-0.002562,0.0051849999999999995,0.23677287342882197,-0.16720257234726688,-0.0811166325635779
1745333466.651963,-1.014369,0.10919,-0.025925,-0.002379,-0.00183,0.004331,0.23677287342882197,-0.16720257234726688,-0.0811166325635779
1745333466.65495,-1.012966,0.10992199999999999,-0.025559,-0.0017079999999999999,-0.0021349999999999997,0.004331,0.23677287342882197,-0.16720257234726688,-0.0811166325635779
1745333466.6579049,-1.013759,0.108702,-0.027145,-0.0025009999999999998,-0.00183,0.0044529999999999995,0.24057293189125986,-0.166325635779012,-0.08579362759427069
1745333466.660799,-1.010404,0.10919,-0.02318,-0.00183,-0.0021349999999999997,0.004697,0.24057293189125986,-0.166325635779012,-0.08579362759427069
1745333466.6637278,-1.012844,0.10961699999999999,-0.024644,-0.0018909999999999999,-0.00244,0.004575,0.24057293189125986,-0.166325635779012,-0.08579362759427069
1745333466.6666334,-1.014918,0.10900699999999999,-0.024156,-0.002013,-0.002562,0.004392,0.24057293189125986,-0.166325635779012,-0.08579362759427069
1745333466.6695452,-1.016382,0.110166,-0.027267,-0.001586,-0.002562,0.004514,0.24057293189125986,-0.166325635779012,-0.08579362759427069
1745333466.6730342,-1.016565,0.110715,-0.025436999999999998,-0.00122,-0.002562,0.004392,0.24057293189125986,-0.166325635779012,-0.08579362759427069
1745333466.6761901,-1.01382,0.108153,-0.027572,-0.002257,-0.002196,0.004209,0.24057293189125986,-0.166325635779012,-0.08579362759427069
1745333466.6800208,-1.010099,0.108702,-0.021899,-0.0025009999999999998,-0.002074,0.0050019999999999995,0.24057293189125986,-0.166325635779012,-0.08579362759427069
1745333466.6832488,-1.014247,0.109739,-0.024156,-0.00183,-0.002074,0.004758,0.24057293189125986,-0.166325635779012,-0.08579362759427069
1745333466.6861873,-1.014796,0.10931199999999999,-0.023546,-0.0023179999999999997,-0.0025009999999999998,0.0046359999999999995,0.24057293189125986,-0.166325635779012,-0.08579362759427069
1745333466.6890557,-1.0126,0.10992199999999999,-0.022935999999999998,-0.002013,-0.00244,0.00488,0.24057293189125986,-0.166325635779012,-0.08579362759427069
1745333466.6919074,-1.013637,0.109129,-0.020557,-0.001952,-0.002013,0.0046359999999999995,0.24057293189125986,-0.166325635779012,-0.08579362759427069
1745333466.6947663,-1.013454,0.107665,-0.025315,-0.002623,-0.00183,0.004575,0.24057293189125986,-0.166325635779012,-0.08579362759427069
1745333466.6975944,-1.012173,0.11022699999999999,-0.022814,-0.0015249999999999999,-0.002013,0.003904,0.24057293189125986,-0.166325635779012,-0.08579362759427069
1745333466.700414,-1.012661,0.108641,-0.025376,-0.001464,-0.002074,0.0044529999999999995,0.24057293189125986,-0.166325635779012,-0.08579362759427069
1745333466.7032216,-1.016016,0.108946,-0.024949,-0.002257,-0.002379,0.004758,0.24057293189125986,-0.166325635779012,-0.08579362759427069
1745333466.706083,-1.012905,0.1098,-0.024949,-0.001952,-0.0026839999999999998,0.0051849999999999995,0.24057293189125986,-0.166325635779012,-0.08579362759427069
1745333466.7094011,-1.013515,0.109983,-0.02379,-0.00183,-0.002196,0.005246,0.2323881905875475,-0.16691026015784857,-0.0912014030985092
1745333466.7127078,-1.013332,0.106628,-0.026168999999999998,-0.002257,-0.002379,0.004148,0.2323881905875475,-0.16691026015784857,-0.0912014030985092
1745333466.7155852,-1.016443,0.10729899999999999,-0.027755,-0.0021349999999999997,-0.00244,0.004575,0.2323881905875475,-0.16691026015784857,-0.0912014030985092
1745333466.718427,-1.012783,0.107848,-0.028975,-0.00244,-0.0023179999999999997,0.0044529999999999995,0.2323881905875475,-0.16691026015784857,-0.0912014030985092
1745333466.7212586,-1.012539,0.109129,-0.027755,-0.0018909999999999999,-0.002196,0.0048189999999999995,0.2323881905875475,-0.16691026015784857,-0.0912014030985092
1745333466.7240834,-1.01321,0.109495,-0.026900999999999998,-0.0023179999999999997,-0.0023179999999999997,0.005063,0.2323881905875475,-0.16691026015784857,-0.0912014030985092
1745333466.726931,-1.012356,0.108458,-0.024339,-0.0018909999999999999,-0.0021349999999999997,0.004941,0.2323881905875475,-0.16691026015784857,-0.0912014030985092
1745333466.7297692,-1.014979,0.108519,-0.024156,-0.002257,-0.002989,0.004331,0.2323881905875475,-0.16691026015784857,-0.0912014030985092
1745333466.732585,-1.015162,0.108641,-0.02745,-0.0018909999999999999,-0.002257,0.004697,0.2323881905875475,-0.16691026015784857,-0.0912014030985092
1745333466.735399,-1.011685,0.11041,-0.024827,-0.00244,-0.002013,0.004575,0.2323881905875475,-0.16691026015784857,-0.0912014030985092
1745333466.7383914,-1.009489,0.108153,-0.022692,-0.001952,-0.002074,0.004026,0.2323881905875475,-0.16691026015784857,-0.0912014030985092
1745333466.7417479,-1.013942,0.10790899999999999,-0.024522,-0.002196,-0.002379,0.0044529999999999995,0.2323881905875475,-0.16691026015784857,-0.0912014030985092
1745333466.744928,-1.012478,0.108641,-0.024522,-0.0021349999999999997,-0.002623,0.0044529999999999995,0.2323881905875475,-0.16691026015784857,-0.0912014030985092
1745333466.7477715,-1.014674,0.10577399999999999,-0.029158,-0.001952,-0.002379,0.004758,0.2323881905875475,-0.16691026015784857,-0.0912014030985092
1745333466.7506008,-1.015162,0.107421,-0.025436999999999998,-0.001647,-0.002623,0.0046359999999999995,0.2323881905875475,-0.16691026015784857,-0.0912014030985092
1745333466.7534215,-1.012722,0.109129,-0.022448,-0.002196,-0.0021349999999999997,0.00488,0.2323881905875475,-0.16691026015784857,-0.0912014030985092
1745333466.7562387,-1.013271,0.10961699999999999,-0.023485,-0.0023179999999999997,-0.0023179999999999997,0.005307,0.2323881905875475,-0.16691026015784857,-0.0912014030985092
1745333466.7590847,-1.013759,0.106445,-0.026413,-0.002196,-0.002562,0.0048189999999999995,0.2326805027769658,-0.16544869921075708,-0.0822858813212511
1745333466.7619221,-1.014003,0.107116,-0.025863999999999998,-0.002379,-0.0025009999999999998,0.0046359999999999995,0.2326805027769658,-0.16544869921075708,-0.0822858813212511
1745333466.7647629,-1.016443,0.10729899999999999,-0.025315,-0.002074,-0.0026839999999999998,0.004758,0.2326805027769658,-0.16544869921075708,-0.0822858813212511
1745333466.767661,-1.013027,0.107055,-0.023363,-0.00244,-0.002562,0.004758,0.2326805027769658,-0.16544869921075708,-0.0822858813212511
1745333466.770858,-1.013393,0.109373,-0.024399999999999998,-0.002074,-0.002928,0.004941,0.2326805027769658,-0.16544869921075708,-0.0822858813212511
1745333466.7743537,-1.013149,0.107665,-0.02623,-0.001647,-0.002196,0.004331,0.2326805027769658,-0.16544869921075708,-0.0822858813212511
1745333466.7773888,-1.011624,0.109373,-0.023241,-0.0018909999999999999,-0.0023179999999999997,0.004392,0.2326805027769658,-0.16544869921075708,-0.0822858813212511
1745333466.7803655,-1.009977,0.10790899999999999,-0.023729,-0.001952,-0.0018909999999999999,0.004209,0.2326805027769658,-0.16544869921075708,-0.0822858813212511
1745333466.7831967,-1.01199,0.108031,-0.025131999999999998,-0.0021349999999999997,-0.0021349999999999997,0.0042699999999999995,0.2326805027769658,-0.16544869921075708,-0.0822858813212511
1745333466.7861388,-1.015162,0.107848,-0.025803,-0.0018909999999999999,-0.002379,0.0042699999999999995,0.2326805027769658,-0.16544869921075708,-0.0822858813212511
1745333466.7890923,-1.014857,0.108031,-0.025742,-0.0018909999999999999,-0.0021349999999999997,0.004209,0.2326805027769658,-0.16544869921075708,-0.0822858813212511
1745333466.7920253,-1.015833,0.109861,-0.030134,-0.002379,-0.002562,0.004758,0.2326805027769658,-0.16544869921075708,-0.0822858813212511
1745333466.7950146,-1.01321,0.108763,-0.021594,-0.002257,-0.002745,0.0046359999999999995,0.2326805027769658,-0.16544869921075708,-0.0822858813212511
1745333466.7986457,-1.013576,0.109068,-0.023424,-0.002196,-0.002562,0.005063,0.2326805027769658,-0.16544869921075708,-0.0822858813212511
1745333466.8017461,-1.012295,0.108702,-0.026535,-0.002257,-0.0018909999999999999,0.004758,0.2326805027769658,-0.16544869921075708,-0.0822858813212511
1745333466.805701,-1.011746,0.106323,-0.027023,-0.002196,-0.0026839999999999998,0.004514,0.2326805027769658,-0.16544869921075708,-0.0822858813212511
1745333466.808961,-1.013576,0.10736,-0.025681,-0.002013,-0.002379,0.004575,0.2326805027769658,-0.16544869921075708,-0.0822858813212511
1745333466.81191,-1.013759,0.108458,-0.025742,-0.0026839999999999998,-0.002806,0.004697,0.2326805027769658,-0.16749488453668518,-0.0923706518561824
1745333466.814824,-1.014064,0.110288,-0.024399999999999998,-0.0018909999999999999,-0.002745,0.004758,0.2326805027769658,-0.16749488453668518,-0.0923706518561824
1745333466.8177447,-1.012295,0.108519,-0.024217,-0.002013,-0.0018909999999999999,0.00488,0.2326805027769658,-0.16749488453668518,-0.0923706518561824
1745333466.8205855,-1.008025,0.108763,-0.022631,-0.002074,-0.002074,0.0048189999999999995,0.2326805027769658,-0.16749488453668518,-0.0923706518561824
1745333466.8235137,-1.014918,0.108946,-0.02501,-0.0023179999999999997,-0.002013,0.0044529999999999995,0.2326805027769658,-0.16749488453668518,-0.0923706518561824
1745333466.8264096,-1.010343,0.109434,-0.022875,-0.002257,-0.002196,0.00488,0.2326805027769658,-0.16749488453668518,-0.0923706518561824
1745333466.829973,-1.013698,0.10675,-0.02562,-0.0025009999999999998,-0.0021349999999999997,0.0046359999999999995,0.2326805027769658,-0.16749488453668518,-0.0923706518561824
1745333466.8330545,-1.0126,0.108824,-0.023729,-0.0023179999999999997,-0.002562,0.004575,0.2326805027769658,-0.16749488453668518,-0.0923706518561824
1745333466.8370402,-1.014613,0.109373,-0.022631,-0.00183,-0.0021349999999999997,0.0042699999999999995,0.2326805027769658,-0.16749488453668518,-0.0923706518561824
1745333466.8403573,-1.016016,0.10992199999999999,-0.027389,-0.0021349999999999997,-0.002379,0.004514,0.2326805027769658,-0.16749488453668518,-0.0923706518561824
1745333466.843417,-1.011197,0.108763,-0.023667999999999998,-0.002074,-0.0026839999999999998,0.0044529999999999995,0.2326805027769658,-0.16749488453668518,-0.0923706518561824
1745333466.8463814,-1.013027,0.109434,-0.027999,-0.0017079999999999999,-0.002379,0.0046359999999999995,0.2326805027769658,-0.16749488453668518,-0.0923706518561824
1745333466.8492475,-1.016138,0.10961699999999999,-0.028121,-0.00244,-0.0023179999999999997,0.004697,0.2326805027769658,-0.16749488453668518,-0.0923706518561824
1745333466.8521802,-1.014003,0.110715,-0.023851,-0.002074,-0.0025009999999999998,0.004331,0.2326805027769658,-0.16749488453668518,-0.0923706518561824
1745333466.8550692,-1.013149,0.10858,-0.025986,-0.002013,-0.002257,0.0042699999999999995,0.2326805027769658,-0.16749488453668518,-0.0923706518561824
1745333466.8579938,-1.012051,0.10919,-0.023546,-0.0023179999999999997,-0.002379,0.0042699999999999995,0.2326805027769658,-0.16749488453668518,-0.0923706518561824
1745333466.8612993,-1.013454,0.110593,-0.024461,-0.0018909999999999999,-0.001952,0.004575,0.23501900029231218,-0.17363344051446947,-0.08447822274188833
1745333466.8643878,-1.01382,0.107665,-0.024522,-0.00244,-0.002806,0.004392,0.23501900029231218,-0.17363344051446947,-0.08447822274188833
1745333466.8676744,-1.011258,0.109068,-0.023607,-0.002562,-0.002013,0.0048189999999999995,0.23501900029231218,-0.17363344051446947,-0.08447822274188833
1745333466.870927,-1.013759,0.10961699999999999,-0.022814,-0.0025009999999999998,-0.0023179999999999997,0.005307,0.23501900029231218,-0.17363344051446947,-0.08447822274188833
1745333466.8738673,-1.015467,0.108702,-0.026108,-0.002257,-0.002196,0.004514,0.23501900029231218,-0.17363344051446947,-0.08447822274188833
1745333466.8767648,-1.011685,0.110349,-0.02623,-0.002013,-0.00244,0.0044529999999999995,0.23501900029231218,-0.17363344051446947,-0.08447822274188833
1745333466.8795953,-1.015162,0.107787,-0.026900999999999998,-0.0017079999999999999,-0.002196,0.004148,0.23501900029231218,-0.17363344051446947,-0.08447822274188833
1745333466.882425,-1.01382,0.10919,-0.024583,-0.00244,-0.002196,0.0046359999999999995,0.23501900029231218,-0.17363344051446947,-0.08447822274188833
1745333466.8852508,-1.011929,0.110471,-0.022935999999999998,-0.0023179999999999997,-0.002379,0.004331,0.23501900029231218,-0.17363344051446947,-0.08447822274188833
1745333466.8880708,-1.0126,0.10900699999999999,-0.022387,-0.002745,-0.0023179999999999997,0.0044529999999999995,0.23501900029231218,-0.17363344051446947,-0.08447822274188833
1745333466.8908844,-1.014674,0.108275,-0.025436999999999998,-0.002379,-0.002196,0.004697,0.23501900029231218,-0.17363344051446947,-0.08447822274188833
1745333466.8937411,-1.013393,0.108763,-0.024949,-0.001586,-0.0023179999999999997,0.004758,0.23501900029231218,-0.17363344051446947,-0.08447822274188833
1745333466.896926,-1.014796,0.107482,-0.022935999999999998,-0.001769,-0.002806,0.0040869999999999995,0.23501900029231218,-0.17363344051446947,-0.08447822274188833
1745333466.9006233,-1.010892,0.108702,-0.022203999999999998,-0.002013,-0.0021349999999999997,0.0046359999999999995,0.23501900029231218,-0.17363344051446947,-0.08447822274188833
1745333466.903665,-1.013027,0.108519,-0.025925,-0.002257,-0.0025009999999999998,0.004209,0.23501900029231218,-0.17363344051446947,-0.08447822274188833
1745333466.9065855,-1.013942,0.108885,-0.024583,-0.0023179999999999997,-0.0015249999999999999,0.004392,0.23501900029231218,-0.17363344051446947,-0.08447822274188833
1745333466.9095178,-1.012173,0.110105,-0.024095,-0.0017079999999999999,-0.0017079999999999999,0.0048189999999999995,0.23501900029231218,-0.17363344051446947,-0.08447822274188833
1745333466.9124193,-1.015894,0.108031,-0.025254,-0.002257,-0.002257,0.004575,0.2300496930722011,-0.1666179479684303,-0.08930137386729027
1745333466.9152858,-1.012173,0.10736,-0.023424,-0.002257,-0.002623,0.004392,0.2300496930722011,-0.1666179479684303,-0.08930137386729027
1745333466.9181685,-1.011624,0.109373,-0.022692,-0.002013,-0.0023179999999999997,0.00488,0.2300496930722011,-0.1666179479684303,-0.08930137386729027
1745333466.9210439,-1.012356,0.107177,-0.024644,-0.0026839999999999998,-0.0018909999999999999,0.0042699999999999995,0.2300496930722011,-0.1666179479684303,-0.08930137386729027
1745333466.9238877,-1.015772,0.108641,-0.025436999999999998,-0.001952,-0.0021349999999999997,0.0044529999999999995,0.2300496930722011,-0.1666179479684303,-0.08930137386729027
1745333466.929133,-1.013698,0.10760399999999999,-0.025376,-0.002196,-0.002562,0.004575,0.2300496930722011,-0.1666179479684303,-0.08930137386729027
1745333466.9329433,-1.014796,0.108214,-0.026352,-0.002257,-0.0028669999999999998,0.004331,0.2300496930722011,-0.1666179479684303,-0.08930137386729027
1745333466.9360957,-1.01199,0.108275,-0.024095,-0.001647,-0.0023179999999999997,0.0048189999999999995,0.2300496930722011,-0.1666179479684303,-0.08930137386729027
1745333466.9390843,-1.012051,0.108763,-0.024522,-0.00183,-0.002379,0.004941,0.2300496930722011,-0.1666179479684303,-0.08930137386729027
1745333466.9419594,-1.014552,0.109495,-0.026779,-0.0023179999999999997,-0.001952,0.004392,0.2300496930722011,-0.1666179479684303,-0.08930137386729027
1745333466.9449942,-1.011624,0.108946,-0.026718,-0.001586,-0.002379,0.004697,0.2300496930722011,-0.1666179479684303,-0.08930137386729027
1745333466.947899,-1.010282,0.110288,-0.02562,-0.00244,-0.002379,0.004331,0.2300496930722011,-0.1666179479684303,-0.08930137386729027
1745333466.9508173,-1.014796,0.111325,-0.026047,-0.002196,-0.002806,0.004392,0.2300496930722011,-0.1666179479684303,-0.08930137386729027
1745333466.9537146,-1.010831,0.108336,-0.022387,-0.002562,-0.002989,0.004392,0.2300496930722011,-0.1666179479684303,-0.08930137386729027
1745333466.9572816,-1.012539,0.109434,-0.026168999999999998,-0.0018909999999999999,-0.0026839999999999998,0.004575,0.2300496930722011,-0.1666179479684303,-0.08930137386729027
1745333466.9603584,-1.012356,0.108641,-0.024583,-0.0023179999999999997,-0.0026839999999999998,0.004392,0.2300496930722011,-0.1666179479684303,-0.08930137386729027
1745333466.9642558,-1.011258,0.10797,-0.02379,-0.002379,-0.002562,0.004514,0.2300496930722011,-0.1666179479684303,-0.08535515931014323
1745333466.9675462,-1.011929,0.11083699999999999,-0.022021,-0.002013,-0.0028669999999999998,0.003904,0.2300496930722011,-0.1666179479684303,-0.08535515931014323
1745333466.9705122,-1.013942,0.108946,-0.028059999999999998,-0.001952,-0.002074,0.0040869999999999995,0.2300496930722011,-0.1666179479684303,-0.08535515931014323
1745333466.9734557,-1.013576,0.107238,-0.024949,-0.002379,-0.002013,0.0046359999999999995,0.2300496930722011,-0.1666179479684303,-0.08535515931014323
1745333466.9763513,-1.014979,0.107482,-0.023851,-0.002257,-0.00244,0.004392,0.2300496930722011,-0.1666179479684303,-0.08535515931014323
1745333466.9792926,-1.01504,0.108519,-0.025436999999999998,-0.001769,-0.002379,0.004941,0.2300496930722011,-0.1666179479684303,-0.08535515931014323
1745333466.982136,-1.012356,0.109495,-0.022448,-0.001952,-0.002379,0.004331,0.2300496930722011,-0.1666179479684303,-0.08535515931014323
1745333466.985063,-1.011868,0.107787,-0.025863999999999998,-0.001464,-0.002074,0.004575,0.2300496930722011,-0.1666179479684303,-0.08535515931014323
1745333466.9886112,-1.011868,0.109861,-0.023912,-0.0017079999999999999,-0.002013,0.005429,0.2300496930722011,-0.1666179479684303,-0.08535515931014323
1745333466.9916945,-1.012844,0.109678,-0.026413,-0.001647,-0.00244,0.004392,0.2300496930722011,-0.1666179479684303,-0.08535515931014323
1745333466.9956698,-1.015406,0.107055,-0.02623,-0.002074,-0.002623,0.004514,0.2300496930722011,-0.1666179479684303,-0.08535515931014323
1745333466.9989512,-1.015406,0.10736,-0.029036,-0.002257,-0.002196,0.0048189999999999995,0.2300496930722011,-0.1666179479684303,-0.08535515931014323
1745333467.0018566,-1.012234,0.10760399999999999,-0.026535,-0.0017079999999999999,-0.002196,0.004392,0.2300496930722011,-0.1666179479684303,-0.08535515931014323
1745333467.0048409,-1.0126,0.108946,-0.027389,-0.0018909999999999999,-0.002074,0.0042699999999999995,0.2300496930722011,-0.1666179479684303,-0.08535515931014323
1745333467.0076718,-1.012905,0.110105,-0.02379,-0.001586,-0.001952,0.0048189999999999995,0.2300496930722011,-0.1666179479684303,-0.08535515931014323
1745333467.0105581,-1.011807,0.108092,-0.023972999999999998,-0.002379,-0.00244,0.004209,0.2300496930722011,-0.1666179479684303,-0.08535515931014323
1745333467.0135055,-1.012966,0.111508,-0.027084,-0.001769,-0.0021349999999999997,0.004331,0.2300496930722011,-0.1666179479684303,-0.08535515931014323
1745333467.0164227,-1.014613,0.108702,-0.026595999999999998,-0.00183,-0.002257,0.004392,0.2341420637240573,-0.1666179479684303,-0.08389359836305174
1745333467.0199084,-1.012844,0.111874,-0.023851,-0.002806,-0.0025009999999999998,0.004331,0.2341420637240573,-0.1666179479684303,-0.08389359836305174
1745333467.023016,-1.013393,0.108702,-0.025803,-0.002074,-0.0018909999999999999,0.004331,0.2341420637240573,-0.1666179479684303,-0.08389359836305174
1745333467.0271184,-1.016321,0.109068,-0.028914,-0.001769,-0.002379,0.004392,0.2341420637240573,-0.1666179479684303,-0.08389359836305174
1745333467.030347,-1.012722,0.109129,-0.026657,-0.001769,-0.00244,0.00488,0.2341420637240573,-0.1666179479684303,-0.08389359836305174
1745333467.0333562,-1.015589,0.109251,-0.028304,-0.002623,-0.0021349999999999997,0.004392,0.2341420637240573,-0.1666179479684303,-0.08389359836305174
1745333467.0362961,-1.011563,0.107177,-0.023119,-0.001952,-0.002257,0.0042699999999999995,0.2341420637240573,-0.1666179479684303,-0.08389359836305174
1745333467.0391338,-1.013454,0.108214,-0.02562,-0.001586,-0.002745,0.004392,0.2341420637240573,-0.1666179479684303,-0.08389359836305174
1745333467.0420825,-1.014918,0.10729899999999999,-0.02013,-0.002257,-0.002623,0.004697,0.2341420637240573,-0.1666179479684303,-0.08389359836305174
1745333467.0450091,-1.015955,0.109983,-0.026657,-0.0017079999999999999,-0.003172,0.0051849999999999995,0.2341420637240573,-0.1666179479684303,-0.08389359836305174
1745333467.0479608,-1.012539,0.109556,-0.022143,-0.001952,-0.0030499999999999998,0.0046359999999999995,0.2341420637240573,-0.1666179479684303,-0.08389359836305174
1745333467.05147,-1.013271,0.109861,-0.022082,-0.0015249999999999999,-0.00244,0.0042699999999999995,0.2341420637240573,-0.1666179479684303,-0.08389359836305174
1745333467.0545557,-1.013637,0.109129,-0.024522,-0.002196,-0.001952,0.004209,0.2341420637240573,-0.1666179479684303,-0.08389359836305174
1745333467.0584886,-1.013881,0.107787,-0.025193,-0.002196,-0.00183,0.00488,0.2341420637240573,-0.1666179479684303,-0.08389359836305174
1745333467.0616577,-1.014064,0.108275,-0.02684,-0.00183,-0.001952,0.004575,0.2341420637240573,-0.1666179479684303,-0.08389359836305174
1745333467.0646455,-1.013454,0.108519,-0.024339,-0.00183,-0.002074,0.004697,0.2341420637240573,-0.1666179479684303,-0.08389359836305174
1745333467.0675406,-1.013088,0.107421,-0.023363,-0.002074,-0.0028669999999999998,0.004575,0.2300496930722011,-0.16515638702133878,-0.07527038877521193
1745333467.070468,-1.015467,0.093696,-0.025742,-0.00183,-0.00244,0.0050019999999999995,0.2300496930722011,-0.16515638702133878,-0.07527038877521193
1745333467.0733151,-1.012478,0.107665,-0.025559,-0.002074,-0.0023179999999999997,0.0051849999999999995,0.2300496930722011,-0.16515638702133878,-0.07527038877521193
1745333467.0761995,-1.010465,0.108153,-0.023424,-0.002013,-0.0023179999999999997,0.0040869999999999995,0.2300496930722011,-0.16515638702133878,-0.07527038877521193
1745333467.0791347,-1.011075,0.10797,-0.022875,-0.0021349999999999997,-0.0021349999999999997,0.004514,0.2300496930722011,-0.16515638702133878,-0.07527038877521193
1745333467.0820458,-1.008147,0.11022699999999999,-0.019764,-0.0026839999999999998,-0.002745,0.0044529999999999995,0.2300496930722011,-0.16515638702133878,-0.07527038877521193
1745333467.0862584,-1.010892,0.108946,-0.024217,-0.0023179999999999997,-0.002989,0.0046359999999999995,0.2300496930722011,-0.16515638702133878,-0.07527038877521193
1745333467.089738,-1.015284,0.111081,-0.026718,-0.001952,-0.002379,0.004392,0.2300496930722011,-0.16515638702133878,-0.07527038877521193
1745333467.0930114,-1.013759,0.109434,-0.028121,-0.0013419999999999999,-0.00244,0.004575,0.2300496930722011,-0.16515638702133878,-0.07527038877521193
1745333467.0959404,-1.011929,0.108458,-0.027938,-0.002257,-0.0023179999999999997,0.004941,0.2300496930722011,-0.16515638702133878,-0.07527038877521193
1745333467.0988247,-1.008696,0.109556,-0.025436999999999998,-0.002074,-0.00183,0.004026,0.2300496930722011,-0.16515638702133878,-0.07527038877521193
1745333467.1017253,-1.013515,0.110105,-0.022326,-0.002074,-0.0023179999999999997,0.004392,0.2300496930722011,-0.16515638702133878,-0.07527038877521193
1745333467.1046424,-1.013942,0.10736,-0.026352,-0.002013,-0.002806,0.0044529999999999995,0.2300496930722011,-0.16515638702133878,-0.07527038877521193
1745333467.1075108,-1.013027,0.108031,-0.025376,-0.001952,-0.002623,0.0044529999999999995,0.2300496930722011,-0.16515638702133878,-0.07527038877521193
1745333467.1106875,-1.011624,0.109556,-0.023546,-0.002257,-0.002196,0.005063,0.2300496930722011,-0.16515638702133878,-0.07527038877521193
1745333467.1137052,-1.010404,0.108397,-0.027023,-0.0025009999999999998,-0.0023179999999999997,0.004758,0.2300496930722011,-0.16515638702133878,-0.07527038877521193
1745333467.1179152,-1.011563,0.10729899999999999,-0.02501,-0.0021349999999999997,-0.0026839999999999998,0.0048189999999999995,0.22361882490499854,-0.17275650394621456,-0.08725518854136217
1745333467.1214116,-1.012844,0.110654,-0.024034,-0.001281,-0.0028669999999999998,0.004575,0.22361882490499854,-0.17275650394621456,-0.08725518854136217
1745333467.124844,-1.012966,0.10797,-0.024278,-0.001952,-0.002806,0.004026,0.22361882490499854,-0.17275650394621456,-0.08725518854136217
1745333467.1279109,-1.009611,0.108031,-0.021594,-0.002196,-0.002562,0.004148,0.22361882490499854,-0.17275650394621456,-0.08725518854136217
1745333467.1308336,-1.011624,0.109739,-0.025376,-0.002196,-0.002623,0.004697,0.22361882490499854,-0.17275650394621456,-0.08725518854136217
1745333467.1337588,-1.013576,0.107543,-0.023851,-0.0015249999999999999,-0.002989,0.004575,0.22361882490499854,-0.17275650394621456,-0.08725518854136217
1745333467.1366034,-1.012234,0.106933,-0.023851,-0.002013,-0.002013,0.004575,0.22361882490499854,-0.17275650394621456,-0.08725518854136217
1745333467.139519,-1.012844,0.10790899999999999,-0.02562,-0.002196,-0.002623,0.004697,0.22361882490499854,-0.17275650394621456,-0.08725518854136217
1745333467.142391,-1.014613,0.107543,-0.024583,-0.0023179999999999997,-0.00244,0.004575,0.22361882490499854,-0.17275650394621456,-0.08725518854136217
1745333467.1453574,-1.01443,0.108153,-0.025376,-0.00183,-0.0025009999999999998,0.0044529999999999995,0.22361882490499854,-0.17275650394621456,-0.08725518854136217
1745333467.149552,-1.013454,0.108824,-0.025193,-0.002196,-0.002196,0.004514,0.22361882490499854,-0.17275650394621456,-0.08725518854136217
1745333467.153052,-1.013698,0.11053199999999999,-0.024095,-0.002257,-0.002196,0.004575,0.22361882490499854,-0.17275650394621456,-0.08725518854136217
1745333467.156373,-1.012051,0.109251,-0.026718,-0.0015249999999999999,-0.0021349999999999997,0.004026,0.22361882490499854,-0.17275650394621456,-0.08725518854136217
1745333467.159282,-1.013942,0.107238,-0.027999,-0.001647,-0.001952,0.004514,0.22361882490499854,-0.17275650394621456,-0.08725518854136217
1745333467.162274,-1.011929,0.109861,-0.025681,-0.0023179999999999997,-0.002623,0.0048189999999999995,0.22361882490499854,-0.17275650394621456,-0.08725518854136217
1745333467.165123,-1.011807,0.109129,-0.023363,-0.002013,-0.001769,0.0044529999999999995,0.22361882490499854,-0.17275650394621456,-0.08725518854136217
1745333467.1680603,-1.01321,0.109739,-0.026168999999999998,-0.002257,-0.0023179999999999997,0.004148,0.2610347851505408,-0.1642794504530839,-0.08374744226834259
1745333467.170958,-1.01077,0.107848,-0.025254,-0.001464,-0.0023179999999999997,0.004209,0.22858813212510962,-0.1642794504530839,-0.08374744226834259
1745333467.1738675,-1.01504,0.108275,-0.026291,-0.0011589999999999999,-0.0028669999999999998,0.0048189999999999995,0.22858813212510962,-0.1642794504530839,-0.08374744226834259
1745333467.1767132,-1.013881,0.111386,-0.022265,-0.002623,-0.002013,0.004697,0.22858813212510962,-0.1642794504530839,-0.08374744226834259
1745333467.1809382,-1.01138,0.110166,-0.025498,-0.001952,-0.002623,0.0044529999999999995,0.22858813212510962,-0.1642794504530839,-0.08374744226834259
1745333467.1844249,-1.011075,0.111447,-0.025681,-0.0021349999999999997,-0.002257,0.0046359999999999995,0.22858813212510962,-0.1642794504530839,-0.08374744226834259
1745333467.1876826,-1.012905,0.110654,-0.027084,-0.001769,-0.002379,0.004209,0.22858813212510962,-0.1642794504530839,-0.08374744226834259
1745333467.1905537,-1.014613,0.108458,-0.025681,-0.002196,-0.00244,0.004941,0.22858813212510962,-0.1642794504530839,-0.08374744226834259
1745333467.1934347,-1.015528,0.106201,-0.028304,-0.0023179999999999997,-0.001586,0.004941,0.22858813212510962,-0.1642794504530839,-0.08374744226834259
1745333467.1962745,-1.014674,0.106567,-0.02562,-0.002013,-0.002257,0.004392,0.22858813212510962,-0.1642794504530839,-0.08374744226834259
1745333467.1990862,-1.012356,0.109068,-0.025436999999999998,-0.001952,-0.002074,0.004392,0.22858813212510962,-0.1642794504530839,-0.08374744226834259
1745333467.2019024,-1.010892,0.108336,-0.022203999999999998,-0.0018909999999999999,-0.0018909999999999999,0.004392,0.22858813212510962,-0.1642794504530839,-0.08374744226834259
1745333467.2047215,-1.014552,0.10900699999999999,-0.022753,-0.001952,-0.002562,0.0044529999999999995,0.22858813212510962,-0.1642794504530839,-0.08374744226834259
1745333467.207547,-1.012783,0.108092,-0.021106,-0.001952,-0.0021349999999999997,0.0044529999999999995,0.22858813212510962,-0.1642794504530839,-0.08374744226834259
1745333467.2104282,-1.013088,0.107787,-0.025498,-0.002013,-0.0021349999999999997,0.004514,0.22858813212510962,-0.1642794504530839,-0.08374744226834259
1745333467.2136066,-1.014552,0.106628,-0.024583,-0.001464,-0.0021349999999999997,0.0046359999999999995,0.22858813212510962,-0.1642794504530839,-0.08374744226834259
1745333467.2170355,-1.01382,0.107116,-0.025376,-0.001952,-0.0025009999999999998,0.004697,0.22858813212510962,-0.1642794504530839,-0.08374744226834259
1745333467.220039,-1.014979,0.108397,-0.024399999999999998,-0.001647,-0.002074,0.004514,0.2335574393452207,-0.1601870798012277,-0.07804735457468577
1745333467.2228925,-1.015955,0.110166,-0.02684,-0.001769,-0.002257,0.004514,0.2335574393452207,-0.1601870798012277,-0.07804735457468577
1745333467.2257242,-1.012722,0.110776,-0.02501,-0.002196,-0.00244,0.004514,0.2335574393452207,-0.1601870798012277,-0.07804735457468577
1745333467.2285862,-1.015284,0.109434,-0.023851,-0.001464,-0.0025009999999999998,0.004697,0.2335574393452207,-0.1601870798012277,-0.07804735457468577
1745333467.2314045,-1.012112,0.109678,-0.024278,-0.002257,-0.0025009999999999998,0.004514,0.2335574393452207,-0.1601870798012277,-0.07804735457468577
1745333467.2342274,-1.012112,0.107116,-0.027084,-0.002196,-0.002074,0.004941,0.2335574393452207,-0.1601870798012277,-0.07804735457468577
1745333467.2370443,-1.015528,0.111386,-0.025925,-0.0017079999999999999,-0.00244,0.0044529999999999995,0.2335574393452207,-0.1601870798012277,-0.07804735457468577
1745333467.2398548,-1.011502,0.109739,-0.025925,-0.0025009999999999998,-0.001769,0.0044529999999999995,0.2335574393452207,-0.1601870798012277,-0.07804735457468577
1745333467.2427258,-1.012844,0.110776,-0.023302,-0.002257,-0.002013,0.0046359999999999995,0.2335574393452207,-0.1601870798012277,-0.07804735457468577
1745333467.246051,-1.013088,0.110471,-0.026962,-0.002196,-0.0021349999999999997,0.00488,0.2335574393452207,-0.1601870798012277,-0.07804735457468577
1745333467.2493582,-1.011563,0.109373,-0.023363,-0.002379,-0.0025009999999999998,0.004209,0.2335574393452207,-0.1601870798012277,-0.07804735457468577
1745333467.2522366,-1.012356,0.10919,-0.025742,-0.002196,-0.002379,0.0042699999999999995,0.2335574393452207,-0.1601870798012277,-0.07804735457468577
1745333467.2550611,-1.012173,0.110654,-0.025925,-0.002196,-0.002379,0.004758,0.2335574393452207,-0.1601870798012277,-0.07804735457468577
1745333467.25789,-1.017236,0.10919,-0.026047,-0.0021349999999999997,-0.001769,0.004758,0.2335574393452207,-0.1601870798012277,-0.07804735457468577
1745333467.2607508,-1.014186,0.108092,-0.024704999999999998,-0.0013419999999999999,-0.0018909999999999999,0.004941,0.2335574393452207,-0.1601870798012277,-0.07804735457468577
1745333467.2635756,-1.01138,0.10858,-0.023119,-0.002196,-0.001647,0.0046359999999999995,0.2335574393452207,-0.1601870798012277,-0.07804735457468577
1745333467.2664018,-1.014369,0.109678,-0.024583,-0.0023179999999999997,-0.002196,0.004758,0.2335574393452207,-0.1601870798012277,-0.07804735457468577
1745333467.2692184,-1.012844,0.10961699999999999,-0.023972999999999998,-0.002196,-0.002257,0.003965,0.2335574393452207,-0.1601870798012277,-0.07804735457468577
1745333467.2720532,-1.013454,0.10900699999999999,-0.026474,-0.00122,-0.002745,0.004209,0.2300496930722011,-0.16544869921075708,-0.08330897398421515
1745333467.275069,-1.01443,0.106811,-0.02501,-0.002379,-0.002623,0.004514,0.2300496930722011,-0.16544869921075708,-0.08330897398421515
1745333467.278451,-1.017053,0.106811,-0.026962,-0.0017079999999999999,-0.00244,0.0046359999999999995,0.2300496930722011,-0.16544869921075708,-0.08330897398421515
1745333467.2816284,-1.013393,0.1098,-0.024399999999999998,-0.002623,-0.0025009999999999998,0.0048189999999999995,0.2300496930722011,-0.16544869921075708,-0.08330897398421515
1745333467.2844927,-1.012966,0.107848,-0.025071,-0.0018909999999999999,-0.002379,0.004514,0.2300496930722011,-0.16544869921075708,-0.08330897398421515
1745333467.2873135,-1.013942,0.108641,-0.025925,-0.001952,-0.002257,0.00488,0.2300496930722011,-0.16544869921075708,-0.08330897398421515
1745333467.2901816,-1.01382,0.106445,-0.02928,-0.002379,-0.002013,0.004575,0.2300496930722011,-0.16544869921075708,-0.08330897398421515
1745333467.2930484,-1.0126,0.106506,-0.02623,-0.002074,-0.0026839999999999998,0.004758,0.2300496930722011,-0.16544869921075708,-0.08330897398421515
1745333467.2958882,-1.011868,0.108641,-0.025376,-0.00183,-0.001952,0.0046359999999999995,0.2300496930722011,-0.16544869921075708,-0.08330897398421515
1745333467.2987123,-1.014796,0.10931199999999999,-0.026291,-0.002257,-0.0021349999999999997,0.0048189999999999995,0.2300496930722011,-0.16544869921075708,-0.08330897398421515
1745333467.3015304,-1.010587,0.108214,-0.02501,-0.002196,-0.0023179999999999997,0.004758,0.2300496930722011,-0.16544869921075708,-0.08330897398421515
1745333467.3043675,-1.010892,0.110654,-0.02562,-0.0023179999999999997,-0.002074,0.004331,0.2300496930722011,-0.16544869921075708,-0.08330897398421515
1745333467.3075125,-1.01138,0.107177,-0.027816,-0.0018909999999999999,-0.002562,0.004575,0.2300496930722011,-0.16544869921075708,-0.08330897398421515
1745333467.3110342,-1.016077,0.109556,-0.026718,-0.0021349999999999997,-0.002806,0.004575,0.2300496930722011,-0.16544869921075708,-0.08330897398421515
1745333467.3140652,-1.013759,0.10729899999999999,-0.023972999999999998,-0.002257,-0.0023179999999999997,0.0048189999999999995,0.2300496930722011,-0.16544869921075708,-0.08330897398421515
1745333467.317045,-1.015284,0.110105,-0.025681,-0.001952,-0.002745,0.004514,0.2300496930722011,-0.16544869921075708,-0.08330897398421515
1745333467.3200345,-1.012905,0.10858,-0.024399999999999998,-0.001586,-0.0023179999999999997,0.004514,0.2300496930722011,-0.16544869921075708,-0.08330897398421515
1745333467.3229423,-1.008452,0.108031,-0.024704999999999998,-0.0025009999999999998,-0.00183,0.004758,0.22712657117801813,-0.1607717041800643,-0.07731657410114001
1745333467.32587,-1.012112,0.110471,-0.026413,-0.0018909999999999999,-0.002074,0.004331,0.22712657117801813,-0.1607717041800643,-0.07731657410114001
1745333467.3287563,-1.01382,0.110105,-0.027327999999999998,-0.001769,-0.0021349999999999997,0.00488,0.22712657117801813,-0.1607717041800643,-0.07731657410114001
1745333467.331688,-1.01382,0.110471,-0.025559,-0.002379,-0.0023179999999999997,0.004575,0.22712657117801813,-0.1607717041800643,-0.07731657410114001
1745333467.3352044,-1.013515,0.107787,-0.024949,-0.002379,-0.002623,0.004392,0.22712657117801813,-0.1607717041800643,-0.07731657410114001
1745333467.3383143,-1.012783,0.10797,-0.02745,-0.0017079999999999999,-0.0023179999999999997,0.004514,0.22712657117801813,-0.1607717041800643,-0.07731657410114001
1745333467.3422506,-1.014308,0.10675,-0.029646,-0.001647,-0.002196,0.004575,0.22712657117801813,-0.1607717041800643,-0.07731657410114001
1745333467.3454463,-1.010465,0.10961699999999999,-0.023424,-0.001952,-0.002013,0.004575,0.22712657117801813,-0.1607717041800643,-0.07731657410114001
1745333467.3483212,-1.012295,0.109495,-0.02196,-0.002013,-0.002806,0.004514,0.22712657117801813,-0.1607717041800643,-0.07731657410114001
1745333467.351139,-1.011502,0.108641,-0.023667999999999998,-0.002379,-0.0023179999999999997,0.004392,0.22712657117801813,-0.1607717041800643,-0.07731657410114001
1745333467.3539612,-1.015101,0.108275,-0.025193,-0.0018909999999999999,-0.0023179999999999997,0.003843,0.22712657117801813,-0.1607717041800643,-0.07731657410114001
1745333467.3567777,-1.014308,0.106933,-0.026595999999999998,-0.002013,-0.003111,0.0042699999999999995,0.22712657117801813,-0.1607717041800643,-0.07731657410114001
1745333467.359612,-1.013271,0.107116,-0.023424,-0.002379,-0.002379,0.0044529999999999995,0.22712657117801813,-0.1607717041800643,-0.07731657410114001
1745333467.3624825,-1.012905,0.10900699999999999,-0.026595999999999998,-0.0021349999999999997,-0.002379,0.0044529999999999995,0.22712657117801813,-0.1607717041800643,-0.07731657410114001
1745333467.365312,-1.012478,0.107848,-0.024704999999999998,-0.001464,-0.001952,0.0042699999999999995,0.22712657117801813,-0.1607717041800643,-0.07731657410114001
1745333467.3681996,-1.010221,0.108031,-0.022814,-0.002257,-0.001647,0.004758,0.22712657117801813,-0.1607717041800643,-0.07731657410114001
1745333467.3715198,-1.00894,0.108336,-0.024949,-0.0021349999999999997,-0.002379,0.00488,0.22712657117801813,-0.1607717041800643,-0.07731657410114001
1745333467.3748186,-1.012478,0.1098,-0.025498,-0.002074,-0.002562,0.0044529999999999995,0.2282958199356913,-0.1622332651271558,-0.07629348143817598
1745333467.37768,-1.012051,0.108275,-0.024461,-0.0025009999999999998,-0.002562,0.005429,0.2282958199356913,-0.1622332651271558,-0.07629348143817598
1745333467.3805294,-1.015528,0.108458,-0.024766,-0.0018909999999999999,-0.002623,0.0046359999999999995,0.2282958199356913,-0.1622332651271558,-0.07629348143817598
1745333467.3833473,-1.013698,0.107726,-0.025376,-0.002257,-0.001952,0.004514,0.2282958199356913,-0.1622332651271558,-0.07629348143817598
1745333467.3861685,-1.010953,0.108641,-0.02684,-0.0013419999999999999,-0.00183,0.0042699999999999995,0.2282958199356913,-0.1622332651271558,-0.07629348143817598
1745333467.389179,-1.012417,0.108458,-0.027816,-0.002013,-0.0023179999999999997,0.005063,0.2282958199356913,-0.1622332651271558,-0.07629348143817598
1745333467.392464,-1.014674,0.10900699999999999,-0.02745,-0.0023179999999999997,-0.003294,0.005063,0.2282958199356913,-0.1622332651271558,-0.07629348143817598
1745333467.395463,-1.012478,0.10760399999999999,-0.024949,-0.002074,-0.002928,0.0048189999999999995,0.2282958199356913,-0.1622332651271558,-0.07629348143817598
1745333467.3983545,-1.013698,0.109129,-0.02379,-0.002257,-0.0028669999999999998,0.005063,0.2282958199356913,-0.1622332651271558,-0.07629348143817598
1745333467.4028294,-1.01321,0.1098,-0.022875,-0.0025009999999999998,-0.002745,0.004758,0.2282958199356913,-0.1622332651271558,-0.07629348143817598
1745333467.40665,-1.01199,0.109739,-0.025071,-0.002013,-0.001952,0.004026,0.2282958199356913,-0.1622332651271558,-0.07629348143817598
1745333467.4097428,-1.010587,0.10790899999999999,-0.025681,-0.002196,-0.00183,0.0035989999999999998,0.2282958199356913,-0.1622332651271558,-0.07629348143817598
1745333467.4126685,-1.013454,0.109556,-0.025131999999999998,-0.002196,-0.0023179999999999997,0.003965,0.2282958199356913,-0.1622332651271558,-0.07629348143817598
1745333467.4155467,-1.012905,0.10992199999999999,-0.024095,-0.002257,-0.002196,0.004331,0.2282958199356913,-0.1622332651271558,-0.07629348143817598
1745333467.4184308,-1.012905,0.10961699999999999,-0.026413,-0.002074,-0.0018909999999999999,0.0046359999999999995,0.2282958199356913,-0.1622332651271558,-0.07629348143817598
1745333467.4213176,-1.016443,0.107543,-0.030439,-0.002196,-0.002257,0.004026,0.2282958199356913,-0.1622332651271558,-0.07629348143817598
1745333467.4241953,-1.014308,0.107482,-0.030012,-0.002379,-0.0023179999999999997,0.004392,0.2344343759134756,-0.16544869921075708,-0.08374744226834259
1745333467.4271035,-1.010526,0.109739,-0.024095,-0.002074,-0.002257,0.0044529999999999995,0.2344343759134756,-0.16544869921075708,-0.08374744226834259
1745333467.4300084,-1.010892,0.107848,-0.027511,-0.0021349999999999997,-0.002074,0.004392,0.2344343759134756,-0.16544869921075708,-0.08374744226834259
1745333467.4332025,-1.013393,0.108702,-0.024278,-0.002379,-0.0025009999999999998,0.004575,0.2344343759134756,-0.16544869921075708,-0.08374744226834259
1745333467.436559,-1.010648,0.108397,-0.023546,-0.002074,-0.0025009999999999998,0.00549,0.2344343759134756,-0.16544869921075708,-0.08374744226834259
1745333467.439523,-1.014064,0.108824,-0.024522,-0.002013,-0.002379,0.004514,0.2344343759134756,-0.16544869921075708,-0.08374744226834259
1745333467.4423864,-1.015833,0.108275,-0.024644,-0.002257,-0.0026839999999999998,0.0044529999999999995,0.2344343759134756,-0.16544869921075708,-0.08374744226834259
1745333467.4452667,-1.013698,0.109251,-0.024949,-0.0025009999999999998,-0.002013,0.0044529999999999995,0.2344343759134756,-0.16544869921075708,-0.08374744226834259
1745333467.4480994,-1.013881,0.11022699999999999,-0.027145,-0.002379,-0.002013,0.004941,0.2344343759134756,-0.16544869921075708,-0.08374744226834259
1745333467.4509423,-1.009428,0.10760399999999999,-0.021594,-0.0025009999999999998,-0.0021349999999999997,0.0051849999999999995,0.2344343759134756,-0.16544869921075708,-0.08374744226834259
1745333467.453771,-1.012844,0.107482,-0.024583,-0.001952,-0.0021349999999999997,0.004392,0.2344343759134756,-0.16544869921075708,-0.08374744226834259
1745333467.4565887,-1.011807,0.108336,-0.024095,-0.002379,-0.0018909999999999999,0.0048189999999999995,0.2344343759134756,-0.16544869921075708,-0.08374744226834259
1745333467.4593995,-1.015345,0.10900699999999999,-0.026535,-0.0025009999999999998,-0.0023179999999999997,0.0046359999999999995,0.2344343759134756,-0.16544869921075708,-0.08374744226834259
1745333467.4622784,-1.013332,0.108458,-0.027084,-0.001647,-0.002013,0.0046359999999999995,0.2344343759134756,-0.16544869921075708,-0.08374744226834259
1745333467.4655998,-1.011868,0.108702,-0.030378,-0.002196,-0.002257,0.004697,0.2344343759134756,-0.16544869921075708,-0.08374744226834259
1745333467.468862,-1.014003,0.109495,-0.02318,-0.0026839999999999998,-0.002745,0.0046359999999999995,0.2344343759134756,-0.16544869921075708,-0.08374744226834259
1745333467.4717107,-1.012661,0.109373,-0.022203999999999998,-0.002074,-0.001647,0.004392,0.2344343759134756,-0.16544869921075708,-0.08374744226834259
1745333467.474558,-1.010404,0.106628,-0.029341,-0.0018909999999999999,-0.002074,0.0040869999999999995,0.2344343759134756,-0.16544869921075708,-0.08374744226834259
1745333467.4774182,-1.014735,0.108397,-0.026779,-0.0021349999999999997,-0.0037819999999999998,0.004697,0.2332651271558024,-0.1601870798012277,-0.080239695995323
1745333467.4802513,-1.010953,0.111569,-0.023241,-0.00183,-0.0028669999999999998,0.0048189999999999995,0.2332651271558024,-0.1601870798012277,-0.080239695995323
1745333467.4830723,-1.013027,0.111508,-0.02318,-0.002013,-0.00183,0.004392,0.2332651271558024,-0.1601870798012277,-0.080239695995323
1745333467.4859426,-1.013576,0.108397,-0.024217,-0.00244,-0.002928,0.004941,0.2332651271558024,-0.1601870798012277,-0.080239695995323
1745333467.489231,-1.011685,0.108336,-0.024217,-0.001647,-0.0015249999999999999,0.0048189999999999995,0.2332651271558024,-0.1601870798012277,-0.080239695995323
1745333467.492324,-1.011319,0.10760399999999999,-0.025742,-0.002013,-0.0021349999999999997,0.0042699999999999995,0.2332651271558024,-0.1601870798012277,-0.080239695995323
1745333467.495337,-1.012844,0.110105,-0.023485,-0.0021349999999999997,-0.0026839999999999998,0.004331,0.2332651271558024,-0.1601870798012277,-0.080239695995323
1745333467.4986827,-1.011868,0.107238,-0.021899,-0.00244,-0.002074,0.004331,0.2332651271558024,-0.1601870798012277,-0.080239695995323
1745333467.5018733,-1.013759,0.106201,-0.026657,-0.002074,-0.00183,0.0050019999999999995,0.2332651271558024,-0.1601870798012277,-0.080239695995323
1745333467.50474,-1.01199,0.106872,-0.026047,-0.002196,-0.0018909999999999999,0.0046359999999999995,0.2332651271558024,-0.1601870798012277,-0.080239695995323
1745333467.5076196,-1.01138,0.107421,-0.024522,-0.001647,-0.0017079999999999999,0.004392,0.2332651271558024,-0.1601870798012277,-0.080239695995323
1745333467.5106063,-1.014369,0.109678,-0.029219,-0.001769,-0.00244,0.0050019999999999995,0.2332651271558024,-0.1601870798012277,-0.080239695995323
1745333467.5134623,-1.014552,0.108397,-0.028304,-0.001281,-0.0023179999999999997,0.0046359999999999995,0.2332651271558024,-0.1601870798012277,-0.080239695995323
1745333467.5162892,-1.01504,0.10760399999999999,-0.028059999999999998,-0.002013,-0.001952,0.004758,0.2332651271558024,-0.1601870798012277,-0.080239695995323
1745333467.519101,-1.013393,0.108885,-0.025131999999999998,-0.001952,-0.002257,0.00488,0.2332651271558024,-0.1601870798012277,-0.080239695995323
1745333467.5219226,-1.015833,0.110593,-0.023424,-0.0018909999999999999,-0.001464,0.0051849999999999995,0.2332651271558024,-0.1601870798012277,-0.080239695995323
1745333467.52476,-1.012478,0.108458,-0.02562,-0.000976,-0.002257,0.004941,0.2332651271558024,-0.1601870798012277,-0.080239695995323
1745333467.5279026,-1.013271,0.108824,-0.029402,-0.0013419999999999999,-0.0023179999999999997,0.0044529999999999995,0.23092662964045602,-0.16135632855890092,-0.07892429114294067
1745333467.5313942,-1.012478,0.108641,-0.02745,-0.002196,-0.002989,0.004331,0.23092662964045602,-0.16135632855890092,-0.07892429114294067
1745333467.5343828,-1.014674,0.107848,-0.023851,-0.0021349999999999997,-0.002989,0.004941,0.23092662964045602,-0.16135632855890092,-0.07892429114294067
1745333467.5372295,-1.014857,0.109861,-0.02623,-0.00183,-0.002013,0.0044529999999999995,0.23092662964045602,-0.16135632855890092,-0.07892429114294067
1745333467.540071,-1.009733,0.108885,-0.022753,-0.002257,-0.001647,0.004758,0.23092662964045602,-0.16135632855890092,-0.07892429114294067
1745333467.5428853,-1.005951,0.109068,-0.024704999999999998,-0.0018909999999999999,-0.00183,0.004514,0.23092662964045602,-0.16135632855890092,-0.07892429114294067
1745333467.5457458,-1.007171,0.124806,-0.026718,-0.0023179999999999997,-0.002623,0.004941,0.23092662964045602,-0.16135632855890092,-0.07892429114294067
1745333467.548568,-1.011868,0.10961699999999999,-0.024034,-0.001952,-0.002562,0.00488,0.23092662964045602,-0.16135632855890092,-0.07892429114294067
1745333467.551377,-1.012844,0.109129,-0.021289,-0.002379,-0.002989,0.004575,0.23092662964045602,-0.16135632855890092,-0.07892429114294067
1745333467.5541937,-1.015223,0.107055,-0.024766,-0.002013,-0.002623,0.004209,0.23092662964045602,-0.16135632855890092,-0.07892429114294067
1745333467.5570514,-1.011868,0.10797,-0.024095,-0.002074,-0.0017079999999999999,0.005124,0.23092662964045602,-0.16135632855890092,-0.07892429114294067
1745333467.5603693,-1.012661,0.108763,-0.022631,-0.002013,-0.0018909999999999999,0.00488,0.23092662964045602,-0.16135632855890092,-0.07892429114294067
1745333467.5635862,-1.012295,0.107421,-0.024399999999999998,-0.002806,-0.002074,0.004697,0.23092662964045602,-0.16135632855890092,-0.07892429114294067
1745333467.566457,-1.011746,0.107665,-0.025254,-0.00244,-0.00244,0.004209,0.23092662964045602,-0.16135632855890092,-0.07892429114294067
1745333467.5692947,-1.012478,0.108641,-0.023912,-0.002196,-0.0026839999999999998,0.004209,0.23092662964045602,-0.16135632855890092,-0.07892429114294067
1745333467.5721161,-1.011746,0.10931199999999999,-0.020007999999999998,-0.002257,-0.002745,0.004331,0.23092662964045602,-0.16135632855890092,-0.07892429114294067
1745333467.57493,-1.017907,0.109434,-0.025193,-0.00183,-0.003294,0.004941,0.23092662964045602,-0.16135632855890092,-0.07892429114294067
1745333467.5777872,-1.015528,0.10797,-0.027084,-0.001586,-0.002257,0.004026,0.22157263957907045,-0.1636948260742473,-0.08213972522654195
1745333467.580612,-1.0065,0.105652,-0.023851,-0.0018909999999999999,-0.001952,0.0048189999999999995,0.22157263957907045,-0.1636948260742473,-0.08213972522654195
1745333467.5834246,-1.007354,0.109373,-0.026047,-0.001952,-0.0034159999999999998,0.004758,0.22157263957907045,-0.1636948260742473,-0.08213972522654195
1745333467.586248,-1.016016,0.108702,-0.024461,-0.002379,-0.0028669999999999998,0.005063,0.22157263957907045,-0.1636948260742473,-0.08213972522654195
1745333467.5892763,-1.018273,0.108763,-0.025681,-0.0017079999999999999,-0.001464,0.005063,0.22157263957907045,-0.1636948260742473,-0.08213972522654195
1745333467.592618,-1.017236,0.10638399999999999,-0.024766,-0.0021349999999999997,-0.001647,0.005246,0.22157263957907045,-0.1636948260742473,-0.08213972522654195
1745333467.5957687,-1.009123,0.108214,-0.021533,-0.001586,-0.0008539999999999999,0.003843,0.22157263957907045,-0.1636948260742473,-0.08213972522654195
1745333467.5986397,-1.010343,0.10992199999999999,-0.024217,-0.002257,-0.003172,0.0042699999999999995,0.22157263957907045,-0.1636948260742473,-0.08213972522654195
1745333467.6014712,-1.015345,0.11223999999999999,-0.024399999999999998,-0.0025009999999999998,-0.004575,0.004758,0.22157263957907045,-0.1636948260742473,-0.08213972522654195
1745333467.6042967,-1.01565,0.109434,-0.024095,-0.0025009999999999998,-0.003721,0.0040869999999999995,0.22157263957907045,-0.1636948260742473,-0.08213972522654195
1745333467.6071348,-1.012295,0.106811,-0.024522,-0.001769,-0.0011589999999999999,0.0048189999999999995,0.22157263957907045,-0.1636948260742473,-0.08213972522654195
1745333467.6099665,-1.010282,0.12364699999999999,-0.025498,-0.001769,-0.002196,0.005673,0.22157263957907045,-0.1636948260742473,-0.08213972522654195
1745333467.6128192,-1.008147,0.11083699999999999,-0.021471999999999998,-0.002013,-0.002196,0.005795,0.22157263957907045,-0.1636948260742473,-0.08213972522654195
1745333467.6156323,-1.014308,0.107177,-0.030195,-0.002257,-0.001769,0.004392,0.22157263957907045,-0.1636948260742473,-0.08213972522654195
1745333467.618484,-1.01382,0.107543,-0.02867,-0.002196,-0.0035989999999999998,0.00366,0.22157263957907045,-0.1636948260742473,-0.08213972522654195
1745333467.6216683,-1.012051,0.108153,-0.024644,-0.002257,-0.0030499999999999998,0.0034159999999999998,0.22157263957907045,-0.1636948260742473,-0.08213972522654195
1745333467.6250293,-1.019127,0.108763,-0.024034,-0.003172,-0.002379,0.0044529999999999995,0.22157263957907045,-0.1636948260742473,-0.08213972522654195
1745333467.628008,-1.014003,0.108702,-0.024583,-0.0018909999999999999,-0.0017079999999999999,0.004514,0.22157263957907045,-0.1636948260742473,-0.08213972522654195
1745333467.6309137,-1.012844,0.106445,-0.024339,-0.002196,-0.001403,0.0044529999999999995,0.22595732242034494,-0.1625255773165741,-0.0817012569424145
1745333467.633748,-1.011319,0.109495,-0.030195,-0.002196,-0.002379,0.004514,0.22595732242034494,-0.1625255773165741,-0.0817012569424145
1745333467.6365695,-1.012112,0.110715,-0.02501,-0.002196,-0.002806,0.0040869999999999995,0.22595732242034494,-0.1625255773165741,-0.0817012569424145
1745333467.6393826,-1.021079,0.113582,-0.022692,-0.00244,-0.003904,0.0048189999999999995,0.22595732242034494,-0.1625255773165741,-0.0817012569424145
1745333467.642205,-1.018029,0.108702,-0.020557,-0.00183,-0.003172,0.004514,0.22595732242034494,-0.1625255773165741,-0.0817012569424145
1745333467.6450589,-1.009367,0.107055,-0.02196,-0.001647,-0.000793,0.004697,0.22595732242034494,-0.1625255773165741,-0.0817012569424145
1745333467.6478882,-1.010587,0.105347,-0.025315,-0.0018909999999999999,-0.0032329999999999998,0.004758,0.22595732242034494,-0.1625255773165741,-0.0817012569424145
1745333467.6507611,-1.01199,0.108519,-0.028914,-0.001952,-0.0026839999999999998,0.0046359999999999995,0.22595732242034494,-0.1625255773165741,-0.0817012569424145
1745333467.654106,-1.021201,0.11102,-0.026168999999999998,-0.002074,-0.002928,0.004392,0.22595732242034494,-0.1625255773165741,-0.0817012569424145
1745333467.657399,-1.01809,0.110898,-0.023119,-0.0023179999999999997,-0.001586,0.0051849999999999995,0.22595732242034494,-0.1625255773165741,-0.0817012569424145
1745333467.6602652,-1.010648,0.103944,-0.023363,-0.001464,-0.000305,0.005063,0.22595732242034494,-0.1625255773165741,-0.0817012569424145
1745333467.6630867,-1.011258,0.106018,-0.030195,-0.001403,-0.0017079999999999999,0.005612,0.22595732242034494,-0.1625255773165741,-0.0817012569424145
1745333467.6659088,-1.012966,0.109129,-0.024644,-0.002013,-0.003172,0.0050019999999999995,0.22595732242034494,-0.1625255773165741,-0.0817012569424145
1745333467.6687267,-1.016138,0.10992199999999999,-0.028609,-0.002379,-0.003172,0.003843,0.22595732242034494,-0.1625255773165741,-0.0817012569424145
1745333467.6715353,-1.015101,0.108702,-0.023546,-0.002074,-0.0032329999999999998,0.0037819999999999998,0.22595732242034494,-0.1625255773165741,-0.0817012569424145
1745333467.6743555,-1.01138,0.108824,-0.026291,-0.0023179999999999997,-0.001952,0.0046359999999999995,0.22595732242034494,-0.1625255773165741,-0.0817012569424145
1745333467.6772025,-1.012539,0.108519,-0.025681,-0.001952,-0.00122,0.005429,0.22595732242034494,-0.1625255773165741,-0.0817012569424145
1745333467.6800625,-1.014735,0.110715,-0.026474,-0.002379,-0.001769,0.005307,0.22595732242034494,-0.1639871382636656,-0.07322420344928383
1745333467.683054,-1.013515,0.107116,-0.029951,-0.0017079999999999999,-0.001769,0.004575,0.2326805027769658,-0.1639871382636656,-0.07322420344928383
1745333467.6864457,-1.008757,0.107665,-0.031476,-0.0015249999999999999,-0.002196,0.004148,0.2326805027769658,-0.1639871382636656,-0.07322420344928383
1745333467.6896899,-1.01748,0.108214,-0.029158,-0.002379,-0.003904,0.004575,0.2326805027769658,-0.1639871382636656,-0.07322420344928383
1745333467.6925619,-1.016504,0.11053199999999999,-0.022509,-0.002562,-0.0025009999999999998,0.004758,0.2326805027769658,-0.1639871382636656,-0.07322420344928383
1745333467.6954117,-1.016138,0.10900699999999999,-0.02562,-0.002013,-0.0011589999999999999,0.004575,0.2326805027769658,-0.1639871382636656,-0.07322420344928383
1745333467.6982481,-1.010587,0.108336,-0.026474,-0.001647,-0.001098,0.004941,0.2326805027769658,-0.1639871382636656,-0.07322420344928383
1745333467.701067,-1.009794,0.10900699999999999,-0.030622,-0.0015249999999999999,-0.00183,0.005063,0.2326805027769658,-0.1639871382636656,-0.07322420344928383
1745333467.7038817,-1.008696,0.108702,-0.028182,-0.002379,-0.002379,0.004575,0.2326805027769658,-0.1639871382636656,-0.07322420344928383
1745333467.706698,-1.011563,0.111386,-0.024156,-0.001647,-0.0028669999999999998,0.004392,0.2326805027769658,-0.1639871382636656,-0.07322420344928383
1745333467.7095144,-1.015833,0.108702,-0.026352,-0.001952,-0.002989,0.003843,0.2326805027769658,-0.1639871382636656,-0.07322420344928383
1745333467.7123494,-1.014064,0.105164,-0.022692,-0.002013,-0.0026839999999999998,0.00366,0.2326805027769658,-0.1639871382636656,-0.07322420344928383
1745333467.7165158,-1.01382,0.109068,-0.02623,-0.001952,-0.003172,0.0044529999999999995,0.2326805027769658,-0.1639871382636656,-0.07322420344928383
1745333467.7198591,-1.012905,0.108824,-0.02318,-0.002257,-0.001403,0.0046359999999999995,0.2326805027769658,-0.1639871382636656,-0.07322420344928383
1745333467.7227383,-1.011929,0.108641,-0.027327999999999998,-0.00183,-0.00061,0.0048189999999999995,0.2326805027769658,-0.1639871382636656,-0.07322420344928383
1745333467.7256072,-1.010831,0.106323,-0.027145,-0.001769,-0.002928,0.004697,0.2326805027769658,-0.1639871382636656,-0.07322420344928383
1745333467.728475,-1.009672,0.107665,-0.024583,-0.0023179999999999997,-0.0030499999999999998,0.004575,0.2326805027769658,-0.1639871382636656,-0.07322420344928383
1745333467.7312956,-1.015955,0.1098,-0.020618,-0.002257,-0.0034159999999999998,0.0046359999999999995,0.2326805027769658,-0.1666179479684303,-0.0817012569424145
1745333467.7341352,-1.018212,0.10992199999999999,-0.023119,-0.002013,-0.002623,0.004209,0.2332651271558024,-0.1666179479684303,-0.0817012569424145
1745333467.7369525,-1.011929,0.108519,-0.021106,-0.0023179999999999997,-0.001281,0.004392,0.2332651271558024,-0.1666179479684303,-0.0817012569424145
1745333467.7397592,-1.008818,0.107726,-0.024949,-0.002013,-0.000793,0.0048189999999999995,0.2332651271558024,-0.1666179479684303,-0.0817012569424145
1745333467.7425804,-1.010404,0.108458,-0.02745,-0.002074,-0.0018909999999999999,0.0053679999999999995,0.2332651271558024,-0.1666179479684303,-0.0817012569424145
1745333467.7456074,-1.009428,0.108702,-0.021838,-0.002196,-0.002013,0.005063,0.2332651271558024,-0.1666179479684303,-0.0817012569424145
1745333467.748993,-1.015955,0.10668899999999999,-0.025681,-0.0023179999999999997,-0.002379,0.004392,0.2332651271558024,-0.1666179479684303,-0.0817012569424145
1745333467.752234,-1.013698,0.109739,-0.02379,-0.00244,-0.0026839999999999998,0.005063,0.2332651271558024,-0.1666179479684303,-0.0817012569424145
1745333467.7550814,-1.0288869999999999,0.108641,-0.021716,-0.00183,-0.002623,0.0044529999999999995,0.2332651271558024,-0.1666179479684303,-0.0817012569424145
1745333467.7579148,-1.013454,0.109495,-0.025254,-0.0021349999999999997,-0.001647,0.004941,0.2332651271558024,-0.1666179479684303,-0.0817012569424145
1745333467.7607727,-1.012234,0.111752,-0.02562,-0.001952,-0.001769,0.0044529999999999995,0.2332651271558024,-0.1666179479684303,-0.0817012569424145
1745333467.7635858,-1.010465,0.108946,-0.028487,-0.0015249999999999999,-0.001952,0.004331,0.2332651271558024,-0.1666179479684303,-0.0817012569424145
1745333467.7664196,-1.009489,0.107848,-0.026779,-0.001769,-0.002562,0.0050019999999999995,0.2332651271558024,-0.1666179479684303,-0.0817012569424145
1745333467.7692757,-1.013881,0.11041,-0.022814,-0.002379,-0.002806,0.005307,0.2332651271558024,-0.1666179479684303,-0.0817012569424145
1745333467.7720933,-1.020042,0.108763,-0.026779,-0.0023179999999999997,-0.00244,0.0048189999999999995,0.2332651271558024,-0.1666179479684303,-0.0817012569424145
1745333467.7749252,-1.015528,0.106567,-0.027389,-0.00244,-0.001952,0.004026,0.2332651271558024,-0.1666179479684303,-0.0817012569424145
1745333467.778112,-1.009794,0.108946,-0.027327999999999998,-0.002379,-0.002623,0.003477,0.2332651271558024,-0.1666179479684303,-0.0817012569424145
1745333467.7814808,-1.011563,0.110166,-0.025986,-0.0023179999999999997,-0.0026839999999999998,0.003965,0.2332651271558024,-0.1666179479684303,-0.0817012569424145
1745333467.7844665,-1.011197,0.106933,-0.023912,-0.001464,-0.0026839999999999998,0.0044529999999999995,0.23501900029231218,-0.1645717626425022,-0.08272434960537854
1745333467.787294,-1.011807,0.106018,-0.024461,-0.001952,-0.002257,0.004209,0.23501900029231218,-0.1645717626425022,-0.08272434960537854
1745333467.7901304,-1.010648,0.106262,-0.022935999999999998,-0.0025009999999999998,-0.0023179999999999997,0.004392,0.23501900029231218,-0.1645717626425022,-0.08272434960537854
1745333467.7929559,-1.012539,0.10797,-0.025376,-0.002928,-0.002989,0.004331,0.23501900029231218,-0.1645717626425022,-0.08272434960537854
1745333467.7957904,-1.015406,0.10577399999999999,-0.024949,-0.001647,-0.0032329999999999998,0.004941,0.23501900029231218,-0.1645717626425022,-0.08272434960537854
1745333467.798622,-1.01565,0.108275,-0.027327999999999998,-0.0015249999999999999,-0.0023179999999999997,0.004697,0.23501900029231218,-0.1645717626425022,-0.08272434960537854
1745333467.8014421,-1.014003,0.10729899999999999,-0.027084,-0.00183,-0.001586,0.004575,0.23501900029231218,-0.1645717626425022,-0.08272434960537854
1745333467.8042567,-1.012295,0.107421,-0.025436999999999998,-0.002074,-0.0021349999999999997,0.004575,0.23501900029231218,-0.1645717626425022,-0.08272434960537854
1745333467.8070972,-1.013515,0.107482,-0.020313,-0.002806,-0.002623,0.0048189999999999995,0.23501900029231218,-0.1645717626425022,-0.08272434960537854
1745333467.810315,-1.013515,0.10797,-0.023241,-0.002379,-0.001952,0.004697,0.23501900029231218,-0.1645717626425022,-0.08272434960537854
1745333467.8136816,-1.011685,0.107055,-0.024278,-0.001586,-0.001464,0.004392,0.23501900029231218,-0.1645717626425022,-0.08272434960537854
1745333467.8166595,-1.010587,0.10699399999999999,-0.028731,-0.001769,-0.002013,0.005124,0.23501900029231218,-0.1645717626425022,-0.08272434960537854
1745333467.8194826,-1.014064,0.108153,-0.027084,-0.002257,-0.002928,0.0046359999999999995,0.23501900029231218,-0.1645717626425022,-0.08272434960537854
1745333467.8223095,-1.0126,0.109373,-0.025131999999999998,-0.002745,-0.002928,0.0048189999999999995,0.23501900029231218,-0.1645717626425022,-0.08272434960537854
1745333467.8251278,-1.010465,0.110105,-0.022509,-0.0017079999999999999,-0.00183,0.004514,0.23501900029231218,-0.1645717626425022,-0.08272434960537854
1745333467.8280017,-1.013515,0.108153,-0.027023,-0.002196,-0.002989,0.004941,0.23501900029231218,-0.1645717626425022,-0.08272434960537854
1745333467.830837,-1.011197,0.109129,-0.027572,-0.002196,-0.003111,0.005429,0.23501900029231218,-0.1645717626425022,-0.08272434960537854
1745333467.8336558,-1.017175,0.110898,-0.027694,-0.00183,-0.002928,0.004941,0.23501900029231218,-0.1683718211049401,-0.08783981292019877
1745333467.836467,-1.015162,0.110898,-0.025803,-0.0018909999999999999,-0.002013,0.004941,0.2297573808827828,-0.1683718211049401,-0.08783981292019877
1745333467.8392947,-1.014064,0.110349,-0.023607,-0.002257,-0.001952,0.0046359999999999995,0.2297573808827828,-0.1683718211049401,-0.08783981292019877
1745333467.8424807,-1.011136,0.10992199999999999,-0.025436999999999998,-0.0021349999999999997,-0.0030499999999999998,0.004331,0.2297573808827828,-0.1683718211049401,-0.08783981292019877
1745333467.845846,-1.012295,0.110288,-0.025436999999999998,-0.00183,-0.00244,0.004392,0.2297573808827828,-0.1683718211049401,-0.08783981292019877
1745333467.8488557,-1.01382,0.112667,-0.022509,-0.002074,-0.002196,0.0044529999999999995,0.2297573808827828,-0.1683718211049401,-0.08783981292019877
1745333467.8516815,-1.00833,0.109251,-0.022143,-0.001037,-0.002379,0.004148,0.2297573808827828,-0.1683718211049401,-0.08783981292019877
1745333467.8545024,-1.010465,0.11114199999999999,-0.021533,-0.0023179999999999997,-0.002257,0.004392,0.2297573808827828,-0.1683718211049401,-0.08783981292019877
1745333467.8573213,-1.012295,0.109495,-0.027327999999999998,-0.002257,-0.003172,0.004392,0.2297573808827828,-0.1683718211049401,-0.08783981292019877
1745333467.8601468,-1.014247,0.1098,-0.026168999999999998,-0.002013,-0.002806,0.0040869999999999995,0.2297573808827828,-0.1683718211049401,-0.08783981292019877
1745333467.8630333,-1.016016,0.108397,-0.027145,-0.002074,-0.0023179999999999997,0.004392,0.2297573808827828,-0.1683718211049401,-0.08783981292019877
1745333467.8658607,-1.014674,0.10638399999999999,-0.023058,-0.001952,-0.0023179999999999997,0.0046359999999999995,0.2297573808827828,-0.1683718211049401,-0.08783981292019877
1745333467.868681,-1.016443,0.109861,-0.028791999999999998,-0.002562,-0.002806,0.004148,0.2297573808827828,-0.1683718211049401,-0.08783981292019877
1745333467.8715343,-1.029985,0.10699399999999999,-0.027755,-0.0028669999999999998,-0.002013,0.00549,0.2297573808827828,-0.1683718211049401,-0.08783981292019877
1745333467.8748627,-1.01382,0.110471,-0.023302,-0.002074,-0.001647,0.0046359999999999995,0.2297573808827828,-0.1683718211049401,-0.08783981292019877
1745333467.878139,-1.010221,0.10729899999999999,-0.022753,-0.001769,-0.0015249999999999999,0.004575,0.2297573808827828,-0.1683718211049401,-0.08783981292019877
1745333467.8809953,-1.008269,0.10498099999999999,-0.026779,-0.001952,-0.002257,0.0040869999999999995,0.2297573808827828,-0.1683718211049401,-0.08783981292019877
1745333467.883814,-1.014979,0.107116,-0.027389,-0.0015249999999999999,-0.002806,0.005063,0.2297573808827828,-0.1683718211049401,-0.08783981292019877
1745333467.8866353,-1.016687,0.107543,-0.022935999999999998,-0.001403,-0.002989,0.004575,0.2358959368605671,-0.17071031862028646,-0.0814089447529962
1745333467.8894503,-1.013942,0.109556,-0.020923,-0.001586,-0.002074,0.00549,0.2358959368605671,-0.17071031862028646,-0.0814089447529962
1745333467.8922687,-1.012539,0.109678,-0.025131999999999998,-0.00244,-0.003172,0.005307,0.2358959368605671,-0.17071031862028646,-0.0814089447529962
1745333467.8951027,-1.013393,0.107848,-0.027267,-0.00122,-0.002196,0.0046359999999999995,0.2358959368605671,-0.17071031862028646,-0.0814089447529962
1745333467.8979304,-1.016626,0.110166,-0.027694,-0.001769,-0.0017079999999999999,0.004514,0.2358959368605671,-0.17071031862028646,-0.0814089447529962
1745333467.9007497,-1.012966,0.10614,-0.024339,-0.002196,-0.003111,0.004514,0.2358959368605671,-0.17071031862028646,-0.0814089447529962
1745333467.9037068,-1.011685,0.11022699999999999,-0.027084,-0.001403,-0.002562,0.0044529999999999995,0.2358959368605671,-0.17071031862028646,-0.0814089447529962
1745333467.9070375,-1.009489,0.107726,-0.026900999999999998,-0.0021349999999999997,-0.003111,0.004331,0.2358959368605671,-0.17071031862028646,-0.0814089447529962
1745333467.9102168,-1.016687,0.10858,-0.025742,-0.002257,-0.0032329999999999998,0.004331,0.2358959368605671,-0.17071031862028646,-0.0814089447529962
1745333467.9130685,-1.010526,0.11053199999999999,-0.022387,-0.0025009999999999998,-0.0021349999999999997,0.004697,0.2358959368605671,-0.17071031862028646,-0.0814089447529962
1745333467.9158971,-1.012478,0.108885,-0.024888,-0.001952,-0.002196,0.004575,0.2358959368605671,-0.17071031862028646,-0.0814089447529962
1745333467.9187157,-1.012417,0.11114199999999999,-0.02257,-0.001952,-0.0018909999999999999,0.005124,0.2358959368605671,-0.17071031862028646,-0.0814089447529962
1745333467.9215336,-1.009062,0.109251,-0.022509,-0.0023179999999999997,-0.002074,0.004514,0.2358959368605671,-0.17071031862028646,-0.0814089447529962
1745333467.9243865,-1.011624,0.10790899999999999,-0.023241,-0.002257,-0.003355,0.004697,0.2358959368605671,-0.17071031862028646,-0.0814089447529962
1745333467.9272032,-1.015711,0.109373,-0.023546,-0.002074,-0.003294,0.004209,0.2358959368605671,-0.17071031862028646,-0.0814089447529962
1745333467.9300482,-1.015772,0.10961699999999999,-0.024461,-0.0026839999999999998,-0.002013,0.004758,0.2358959368605671,-0.17071031862028646,-0.0814089447529962
1745333467.9328728,-1.016931,0.108336,-0.023972999999999998,-0.002013,-0.002379,0.0053679999999999995,0.2358959368605671,-0.17071031862028646,-0.0814089447529962
1745333467.9358156,-1.009611,0.110349,-0.023972999999999998,-0.00183,-0.002196,0.0050019999999999995,0.2358959368605671,-0.17071031862028646,-0.0814089447529962
1745333467.939238,-1.01138,0.11041,-0.020801,-0.002196,-0.00183,0.004514,0.2315112540192926,-0.166325635779012,-0.0811166325635779
1745333467.9424162,-1.012478,0.108275,-0.023851,-0.0017079999999999999,-0.002074,0.003965,0.2315112540192926,-0.166325635779012,-0.0811166325635779
1745333467.9452777,-1.016077,0.109068,-0.027023,-0.002379,-0.002989,0.003965,0.2315112540192926,-0.166325635779012,-0.0811166325635779
1745333467.9480999,-1.016443,0.10790899999999999,-0.024949,-0.002257,-0.003294,0.004514,0.2315112540192926,-0.166325635779012,-0.0811166325635779
1745333467.950911,-1.015101,0.107726,-0.022143,-0.001952,-0.00244,0.0048189999999999995,0.2315112540192926,-0.166325635779012,-0.0811166325635779
1745333467.9537337,-1.012112,0.110288,-0.022387,-0.002013,-0.001647,0.0044529999999999995,0.2315112540192926,-0.166325635779012,-0.0811166325635779
1745333467.956551,-1.011136,0.107177,-0.024095,-0.0023179999999999997,-0.00183,0.004941,0.2315112540192926,-0.166325635779012,-0.0811166325635779
1745333467.9593608,-1.011929,0.108458,-0.023851,-0.002013,-0.0018909999999999999,0.005124,0.2315112540192926,-0.166325635779012,-0.0811166325635779
1745333467.962208,-1.014674,0.110349,-0.024399999999999998,-0.00244,-0.002989,0.00488,0.2315112540192926,-0.166325635779012,-0.0811166325635779
1745333467.9650345,-1.016321,0.108031,-0.026108,-0.0023179999999999997,-0.0028669999999999998,0.0044529999999999995,0.2315112540192926,-0.166325635779012,-0.0811166325635779
1745333467.9680119,-1.012966,0.10553,-0.024217,-0.002257,-0.002623,0.004575,0.2315112540192926,-0.166325635779012,-0.0811166325635779
1745333467.971242,-1.016016,0.10931199999999999,-0.027938,-0.002257,-0.0023179999999999997,0.005063,0.2315112540192926,-0.166325635779012,-0.0811166325635779
1745333467.9744742,-1.012112,0.10919,-0.023851,-0.0021349999999999997,-0.0021349999999999997,0.005063,0.2315112540192926,-0.166325635779012,-0.0811166325635779
1745333467.977326,-1.011075,0.11114199999999999,-0.023058,-0.002013,-0.001769,0.004514,0.2315112540192926,-0.166325635779012,-0.0811166325635779
1745333467.9801545,-1.011807,0.108702,-0.024522,-0.002196,-0.00122,0.004148,0.2315112540192926,-0.166325635779012,-0.0811166325635779
1745333467.9829686,-1.009489,0.108153,-0.024522,-0.002013,-0.002379,0.004575,0.2315112540192926,-0.166325635779012,-0.0811166325635779
1745333467.9857845,-1.011441,0.109678,-0.021471999999999998,-0.0023179999999999997,-0.003294,0.004392,0.2315112540192926,-0.166325635779012,-0.0811166325635779
1745333467.988616,-1.015223,0.10668899999999999,-0.026291,-0.0021349999999999997,-0.003294,0.004026,0.23940368313358668,-0.160479391990646,-0.08871674948845366
1745333467.9914272,-1.013088,0.109251,-0.020739999999999998,-0.001952,-0.002196,0.004331,0.23940368313358668,-0.160479391990646,-0.08871674948845366
1745333467.9942653,-1.011685,0.110166,-0.020557,-0.00244,-0.0021349999999999997,0.0048189999999999995,0.23940368313358668,-0.160479391990646,-0.08871674948845366
1745333467.9971106,-1.01321,0.111264,-0.024217,-0.001952,-0.001769,0.004697,0.23940368313358668,-0.160479391990646,-0.08871674948845366
1745333468.000088,-1.013027,0.10900699999999999,-0.028548,-0.00183,-0.002074,0.004697,0.23940368313358668,-0.160479391990646,-0.08871674948845366
1745333468.0034726,-1.01321,0.108885,-0.025254,-0.001952,-0.0025009999999999998,0.004575,0.23940368313358668,-0.160479391990646,-0.08871674948845366
1745333468.006689,-1.013088,0.109556,-0.028426,-0.001647,-0.0023179999999999997,0.0044529999999999995,0.23940368313358668,-0.160479391990646,-0.08871674948845366
1745333468.0095644,-1.015955,0.107543,-0.023667999999999998,-0.0015249999999999999,-0.0018909999999999999,0.0046359999999999995,0.23940368313358668,-0.160479391990646,-0.08871674948845366
1745333468.0124226,-1.016992,0.109434,-0.024095,-0.00183,-0.00244,0.004392,0.23940368313358668,-0.160479391990646,-0.08871674948845366
1745333468.015237,-1.010282,0.109251,-0.022203999999999998,-0.002562,-0.003111,0.004209,0.23940368313358668,-0.160479391990646,-0.08871674948845366
1745333468.0180557,-1.011136,0.110349,-0.022387,-0.0025009999999999998,-0.0015249999999999999,0.0048189999999999995,0.23940368313358668,-0.160479391990646,-0.08871674948845366
1745333468.020881,-1.012783,0.108031,-0.022326,-0.001098,-0.001952,0.0050019999999999995,0.23940368313358668,-0.160479391990646,-0.08871674948845366
1745333468.0236888,-1.012539,0.10699399999999999,-0.025193,-0.001769,-0.0021349999999999997,0.0051849999999999995,0.23940368313358668,-0.160479391990646,-0.08871674948845366
1745333468.0265079,-1.012234,0.104798,-0.026900999999999998,-0.002257,-0.0026839999999999998,0.0048189999999999995,0.23940368313358668,-0.160479391990646,-0.08871674948845366
1745333468.0293305,-1.013149,0.105713,-0.027816,-0.0023179999999999997,-0.002928,0.004331,0.23940368313358668,-0.160479391990646,-0.08871674948845366
1745333468.0323086,-1.014308,0.10931199999999999,-0.023912,-0.0025009999999999998,-0.003904,0.004697,0.23940368313358668,-0.160479391990646,-0.08871674948845366
1745333468.035632,-1.017785,0.108702,-0.022265,-0.00244,-0.003538,0.004392,0.23940368313358668,-0.160479391990646,-0.08871674948845366
1745333468.0388055,-1.017114,0.10675,-0.024217,-0.002013,-0.0023179999999999997,0.0044529999999999995,0.23852674656533177,-0.1645717626425022,-0.08754750073078048
1745333468.0416648,-1.011319,0.107177,-0.024156,-0.001647,-0.000915,0.0053679999999999995,0.23852674656533177,-0.1645717626425022,-0.08754750073078048
1745333468.0445194,-1.008452,0.10577399999999999,-0.026779,-0.0015249999999999999,-0.0017079999999999999,0.005063,0.23852674656533177,-0.1645717626425022,-0.08754750073078048
1745333468.0473413,-1.00955,0.10729899999999999,-0.026108,-0.002257,-0.002562,0.004697,0.23852674656533177,-0.1645717626425022,-0.08754750073078048
1745333468.0501623,-1.01321,0.106567,-0.024339,-0.001647,-0.002989,0.004209,0.23852674656533177,-0.1645717626425022,-0.08754750073078048
1745333468.052979,-1.015955,0.108885,-0.022631,-0.002013,-0.003294,0.0040869999999999995,0.23852674656533177,-0.1645717626425022,-0.08754750073078048
1745333468.055785,-1.015467,0.110166,-0.022935999999999998,-0.0018909999999999999,-0.003172,0.004392,0.23852674656533177,-0.1645717626425022,-0.08754750073078048
1745333468.0586038,-1.016199,0.111508,-0.019581,-0.001952,-0.000915,0.0055509999999999995,0.23852674656533177,-0.1645717626425022,-0.08754750073078048
1745333468.061423,-1.015223,0.110898,-0.023546,-0.001952,0.000244,0.005673,0.23852674656533177,-0.1645717626425022,-0.08754750073078048
1745333468.0643973,-1.003145,0.10675,-0.027145,-0.001647,-0.001098,0.0053679999999999995,0.23852674656533177,-0.1645717626425022,-0.08754750073078048
1745333468.0677395,-1.007415,0.107665,-0.030317,-0.0017079999999999999,-0.0025009999999999998,0.0035989999999999998,0.23852674656533177,-0.1645717626425022,-0.08754750073078048
1745333468.070924,-1.014186,0.108885,-0.028364999999999998,-0.0023179999999999997,-0.0051849999999999995,0.003721,0.23852674656533177,-0.1645717626425022,-0.08754750073078048
1745333468.0737753,-1.0249219999999999,0.110471,-0.024583,-0.001952,-0.004209,0.004392,0.23852674656533177,-0.1645717626425022,-0.08754750073078048
1745333468.0766017,-1.018395,0.108275,-0.019337,-0.002562,-0.002623,0.0046359999999999995,0.23852674656533177,-0.1645717626425022,-0.08754750073078048
1745333468.0794344,-1.012661,0.11053199999999999,-0.021411,-0.0015249999999999999,-0.0008539999999999999,0.005246,0.23852674656533177,-0.1645717626425022,-0.08754750073078048
1745333468.0822937,-1.006317,0.11053199999999999,-0.026352,-0.002257,-0.001281,0.0046359999999999995,0.23852674656533177,-0.1645717626425022,-0.08754750073078048
1745333468.0851152,-1.00162,0.110349,-0.030683,-0.002074,-0.002379,0.004209,0.23852674656533177,-0.1645717626425022,-0.08754750073078048
1745333468.0878935,-1.015894,0.108275,-0.028609,-0.002074,-0.004026,0.00366,0.23852674656533177,-0.1645717626425022,-0.08754750073078048
1745333468.0907626,-1.017541,0.108275,-0.01952,-0.0017079999999999999,-0.0048189999999999995,0.003721,0.23648056123940367,-0.1642794504530839,-0.08593978368897984
1745333468.0935905,-1.017663,0.109129,-0.017629,-0.0025009999999999998,-0.003721,0.004209,0.23648056123940367,-0.1642794504530839,-0.08593978368897984
1745333468.0965755,-1.016443,0.10900699999999999,-0.019032,-0.0023179999999999997,-0.001464,0.00488,0.23648056123940367,-0.1642794504530839,-0.08593978368897984
1745333468.0999122,-1.012844,0.109983,-0.024399999999999998,-0.00183,-0.000366,0.0050019999999999995,0.23648056123940367,-0.1642794504530839,-0.08593978368897984
1745333468.103102,-1.002657,0.109495,-0.02501,-0.002013,-0.000732,0.004697,0.23648056123940367,-0.1642794504530839,-0.08593978368897984
1745333468.1059546,-1.007842,0.109251,-0.028364999999999998,-0.002379,-0.0035989999999999998,0.0037819999999999998,0.23648056123940367,-0.1642794504530839,-0.08593978368897984
1745333468.108783,-1.012051,0.108824,-0.027572,-0.0021349999999999997,-0.004026,0.003538,0.23648056123940367,-0.1642794504530839,-0.08593978368897984
1745333468.1116586,-1.020896,0.10607899999999999,-0.024034,-0.002074,-0.00366,0.004209,0.23648056123940367,-0.1642794504530839,-0.08593978368897984
1745333468.1144915,-1.020896,0.107726,-0.02379,-0.00183,-0.002989,0.0048189999999999995,0.23648056123940367,-0.1642794504530839,-0.08593978368897984
1745333468.117309,-1.014308,0.107177,-0.02196,-0.001647,-0.0018909999999999999,0.004697,0.23648056123940367,-0.1642794504530839,-0.08593978368897984
1745333468.1201231,-1.008086,0.107238,-0.023485,-0.001952,-0.0008539999999999999,0.004331,0.23648056123940367,-0.1642794504530839,-0.08593978368897984
1745333468.1229296,-1.007049,0.110044,-0.025436999999999998,-0.0015249999999999999,-0.0013419999999999999,0.004209,0.23648056123940367,-0.1642794504530839,-0.08593978368897984
1745333468.1257558,-1.006988,0.109434,-0.026047,-0.002013,-0.0017079999999999999,0.0046359999999999995,0.23648056123940367,-0.1642794504530839,-0.08593978368897984
1745333468.128742,-1.013759,0.105347,-0.031598,-0.00183,-0.00244,0.004575,0.23648056123940367,-0.1642794504530839,-0.08593978368897984
1745333468.1321006,-1.017663,0.10492,-0.027145,-0.00183,-0.003294,0.003721,0.23648056123940367,-0.1642794504530839,-0.08593978368897984
1745333468.1352837,-1.020469,0.10931199999999999,-0.022997,-0.0021349999999999997,-0.0030499999999999998,0.004148,0.23648056123940367,-0.1642794504530839,-0.08593978368897984
1745333468.138138,-1.013942,0.10900699999999999,-0.027023,-0.0015249999999999999,-0.0023179999999999997,0.004392,0.23648056123940367,-0.1642794504530839,-0.08593978368897984
1745333468.1409643,-1.010038,0.108885,-0.026595999999999998,-0.001586,-0.001403,0.005307,0.23648056123940367,-0.1636948260742473,-0.0814089447529962
1745333468.143776,-1.007903,0.10638399999999999,-0.023912,-0.002257,-0.0018909999999999999,0.004026,0.2329728149663841,-0.1636948260742473,-0.0814089447529962
1745333468.1466267,-1.008879,0.10736,-0.028304,-0.002379,-0.002623,0.004026,0.2329728149663841,-0.1636948260742473,-0.0814089447529962
1745333468.1494482,-1.010343,0.108946,-0.024156,-0.0021349999999999997,-0.0034159999999999998,0.004026,0.2329728149663841,-0.1636948260742473,-0.0814089447529962
1745333468.1522655,-1.018029,0.10797,-0.027389,-0.0021349999999999997,-0.002806,0.0042699999999999995,0.2329728149663841,-0.1636948260742473,-0.0814089447529962
1745333468.155072,-1.017236,0.108397,-0.025376,-0.002257,-0.003172,0.0046359999999999995,0.2329728149663841,-0.1636948260742473,-0.0814089447529962
1745333468.1579177,-1.019127,0.10858,-0.029585,-0.00244,-0.002379,0.0042699999999999995,0.2329728149663841,-0.1636948260742473,-0.0814089447529962
1745333468.160879,-1.012417,0.10607899999999999,-0.026718,-0.002562,-0.0011589999999999999,0.00488,0.2329728149663841,-0.1636948260742473,-0.0814089447529962
1745333468.1641104,-1.008452,0.10736,-0.026168999999999998,-0.002196,-0.0013419999999999999,0.0050019999999999995,0.2329728149663841,-0.1636948260742473,-0.0814089447529962
1745333468.1673381,-1.007415,0.107482,-0.025498,-0.00183,-0.0023179999999999997,0.004697,0.2329728149663841,-0.1636948260742473,-0.0814089447529962
1745333468.1703036,-1.014308,0.10961699999999999,-0.027084,-0.00244,-0.002806,0.004941,0.2329728149663841,-0.1636948260742473,-0.0814089447529962
1745333468.173139,-1.019798,0.109068,-0.025986,-0.002379,-0.002379,0.005429,0.2329728149663841,-0.1636948260742473,-0.0814089447529962
1745333468.1759903,-1.015955,0.10699399999999999,-0.024461,-0.0018909999999999999,-0.0026839999999999998,0.005124,0.2329728149663841,-0.1636948260742473,-0.0814089447529962
1745333468.1788542,-1.014491,0.109434,-0.025376,-0.001586,-0.002562,0.004392,0.2329728149663841,-0.1636948260742473,-0.0814089447529962
1745333468.181684,-1.013149,0.108397,-0.025193,-0.0021349999999999997,-0.002196,0.004392,0.2329728149663841,-0.1636948260742473,-0.0814089447529962
1745333468.184505,-1.011624,0.108397,-0.02379,-0.0023179999999999997,-0.001281,0.004148,0.2329728149663841,-0.1636948260742473,-0.0814089447529962
1745333468.1873136,-1.011685,0.108519,-0.023546,-0.001952,-0.002074,0.004392,0.2329728149663841,-0.1636948260742473,-0.0814089447529962
1745333468.1901937,-1.013149,0.107726,-0.026900999999999998,-0.0017079999999999999,-0.002745,0.004392,0.2329728149663841,-0.1636948260742473,-0.0814089447529962
1745333468.1930807,-1.014308,0.110593,-0.025254,-0.00183,-0.0021349999999999997,0.004941,0.23764980999707688,-0.16778719672610348,-0.0923706518561824
1745333468.1964204,-1.017846,0.10931199999999999,-0.024399999999999998,-0.002379,-0.003477,0.004148,0.23764980999707688,-0.16778719672610348,-0.0923706518561824
1745333468.1996226,-1.013393,0.1098,-0.022265,-0.001769,-0.001769,0.004514,0.23764980999707688,-0.16778719672610348,-0.0923706518561824
1745333468.2024875,-1.014552,0.108153,-0.027206,-0.002257,-0.001952,0.004697,0.23764980999707688,-0.16778719672610348,-0.0923706518561824
1745333468.2053642,-1.014003,0.108214,-0.025071,-0.002013,-0.001281,0.004514,0.23764980999707688,-0.16778719672610348,-0.0923706518561824
1745333468.2081866,-1.011502,0.11102,-0.023729,-0.002074,-0.001769,0.0046359999999999995,0.23764980999707688,-0.16778719672610348,-0.0923706518561824
1745333468.2110136,-1.012661,0.10919,-0.021716,-0.002074,-0.0025009999999999998,0.0050019999999999995,0.23764980999707688,-0.16778719672610348,-0.0923706518561824
1745333468.213881,-1.014064,0.1098,-0.025925,-0.0021349999999999997,-0.0030499999999999998,0.0046359999999999995,0.23764980999707688,-0.16778719672610348,-0.0923706518561824
1745333468.2167025,-1.014735,0.108641,-0.022875,-0.002257,-0.002257,0.004575,0.23764980999707688,-0.16778719672610348,-0.0923706518561824
1745333468.2195156,-1.013027,0.108092,-0.023485,-0.002074,-0.001952,0.004331,0.23764980999707688,-0.16778719672610348,-0.0923706518561824
1745333468.2223876,-1.013881,0.110166,-0.025925,-0.001464,-0.002257,0.004697,0.23764980999707688,-0.16778719672610348,-0.0923706518561824
1745333468.2253726,-1.010099,0.110715,-0.025071,-0.0026839999999999998,-0.0021349999999999997,0.0044529999999999995,0.23764980999707688,-0.16778719672610348,-0.0923706518561824
1745333468.2287376,-1.011868,0.10931199999999999,-0.026474,-0.0021349999999999997,-0.0025009999999999998,0.004209,0.23764980999707688,-0.16778719672610348,-0.0923706518561824
1745333468.231929,-1.013759,0.10858,-0.027145,-0.0021349999999999997,-0.0032329999999999998,0.004575,0.23764980999707688,-0.16778719672610348,-0.0923706518561824
1745333468.2347994,-1.012539,0.10858,-0.02196,-0.002074,-0.0023179999999999997,0.0046359999999999995,0.23764980999707688,-0.16778719672610348,-0.0923706518561824
1745333468.2376528,-1.017114,0.108031,-0.025254,-0.002013,-0.002562,0.004575,0.23764980999707688,-0.16778719672610348,-0.0923706518561824
1745333468.2404745,-1.01443,0.107848,-0.023058,-0.0018909999999999999,-0.0023179999999999997,0.0048189999999999995,0.23764980999707688,-0.16778719672610348,-0.0923706518561824
1745333468.2432878,-1.010465,0.108336,-0.023607,-0.001769,-0.0021349999999999997,0.004575,0.23764980999707688,-0.17246419175679625,-0.09090909090909091
1745333468.2461421,-1.013881,0.10736,-0.026108,-0.001403,-0.002013,0.004514,0.23121894182987432,-0.17246419175679625,-0.09090909090909091
1745333468.2489645,-1.009977,0.10858,-0.023302,-0.002074,-0.002257,0.004331,0.23121894182987432,-0.17246419175679625,-0.09090909090909091
1745333468.2517738,-1.013942,0.10577399999999999,-0.023851,-0.0017079999999999999,-0.00183,0.004514,0.23121894182987432,-0.17246419175679625,-0.09090909090909091
1745333468.2545981,-1.013454,0.109129,-0.022265,-0.001647,-0.002379,0.004575,0.23121894182987432,-0.17246419175679625,-0.09090909090909091
1745333468.257595,-1.014491,0.107848,-0.028364999999999998,-0.002013,-0.002562,0.0046359999999999995,0.23121894182987432,-0.17246419175679625,-0.09090909090909091
1745333468.2609267,-1.013515,0.108092,-0.028304,-0.001769,-0.0021349999999999997,0.0046359999999999995,0.23121894182987432,-0.17246419175679625,-0.09090909090909091
1745333468.2641172,-1.010831,0.108397,-0.027694,-0.0025009999999999998,-0.002379,0.0042699999999999995,0.23121894182987432,-0.17246419175679625,-0.09090909090909091
1745333468.2670121,-1.009733,0.109739,-0.024949,-0.002196,-0.002745,0.004392,0.23121894182987432,-0.17246419175679625,-0.09090909090909091
1745333468.2699192,-1.01199,0.108946,-0.024949,-0.001952,-0.0028669999999999998,0.0050019999999999995,0.23121894182987432,-0.17246419175679625,-0.09090909090909091
1745333468.2727482,-1.015833,0.108641,-0.025925,-0.001647,-0.002562,0.0048189999999999995,0.23121894182987432,-0.17246419175679625,-0.09090909090909091
1745333468.2755628,-1.014857,0.10729899999999999,-0.027999,-0.002257,-0.0026839999999999998,0.004514,0.23121894182987432,-0.17246419175679625,-0.09090909090909091
1745333468.278411,-1.016016,0.108824,-0.029219,-0.002013,-0.002013,0.004392,0.23121894182987432,-0.17246419175679625,-0.09090909090909091
1745333468.2812355,-1.013332,0.107177,-0.029523999999999998,-0.002196,-0.0023179999999999997,0.004941,0.23121894182987432,-0.17246419175679625,-0.09090909090909091
1745333468.2840643,-1.013637,0.10919,-0.02562,-0.002013,-0.0018909999999999999,0.004697,0.23121894182987432,-0.17246419175679625,-0.09090909090909091
1745333468.2868972,-1.012295,0.108946,-0.024949,-0.001586,-0.002074,0.004514,0.23121894182987432,-0.17246419175679625,-0.09090909090909091
1745333468.2900684,-1.010282,0.109068,-0.024522,-0.002257,-0.0025009999999999998,0.004392,0.23121894182987432,-0.17246419175679625,-0.09090909090909091
1745333468.293465,-1.011624,0.108397,-0.02196,-0.002196,-0.002562,0.0046359999999999995,0.23121894182987432,-0.17246419175679625,-0.09090909090909091
1745333468.2964518,-1.013942,0.10790899999999999,-0.025803,-0.002196,-0.002745,0.004758,0.2315112540192926,-0.1619409529377375,-0.08418591055247004
1745333468.2992766,-1.028216,0.10638399999999999,-0.029828999999999998,-0.002562,-0.002379,0.0050019999999999995,0.2315112540192926,-0.1619409529377375,-0.08418591055247004
1745333468.3021035,-1.013271,0.111386,-0.025254,-0.002074,-0.0025009999999999998,0.00488,0.2315112540192926,-0.1619409529377375,-0.08418591055247004
1745333468.3049219,-1.014918,0.108824,-0.027206,-0.00244,-0.002745,0.0050019999999999995,0.2315112540192926,-0.1619409529377375,-0.08418591055247004
1745333468.3077295,-1.011441,0.107665,-0.023667999999999998,-0.002074,-0.002074,0.004758,0.2315112540192926,-0.1619409529377375,-0.08418591055247004
1745333468.3105514,-1.012783,0.110288,-0.023302,-0.0021349999999999997,-0.002379,0.004392,0.2315112540192926,-0.1619409529377375,-0.08418591055247004
1745333468.3134341,-1.014491,0.108763,-0.025315,-0.002379,-0.002562,0.0042699999999999995,0.2315112540192926,-0.1619409529377375,-0.08418591055247004
1745333468.3162577,-1.014186,0.108824,-0.024522,-0.0023179999999999997,-0.00183,0.0040869999999999995,0.2315112540192926,-0.1619409529377375,-0.08418591055247004
1745333468.3190901,-1.010465,0.10900699999999999,-0.023302,-0.001769,-0.001647,0.004148,0.2315112540192926,-0.1619409529377375,-0.08418591055247004
1745333468.3222983,-1.009855,0.10992199999999999,-0.022509,-0.0017079999999999999,-0.0023179999999999997,0.004514,0.2315112540192926,-0.1619409529377375,-0.08418591055247004
1745333468.3256323,-1.010282,0.109251,-0.02379,-0.002013,-0.002013,0.004697,0.2315112540192926,-0.1619409529377375,-0.08418591055247004
1745333468.3286078,-1.013149,0.108885,-0.024339,-0.002013,-0.0018909999999999999,0.004697,0.2315112540192926,-0.1619409529377375,-0.08418591055247004
1745333468.3314295,-1.013088,0.108519,-0.026413,-0.001769,-0.0018909999999999999,0.004941,0.2315112540192926,-0.1619409529377375,-0.08418591055247004
1745333468.3342562,-1.012112,0.109556,-0.025925,-0.002013,-0.002196,0.0050019999999999995,0.2315112540192926,-0.1619409529377375,-0.08418591055247004
1745333468.3370757,-1.0126,0.108641,-0.02684,-0.002806,-0.002074,0.004392,0.2315112540192926,-0.1619409529377375,-0.08418591055247004
1745333468.339885,-1.01199,0.10760399999999999,-0.023058,-0.002074,-0.002623,0.0042699999999999995,0.2315112540192926,-0.1619409529377375,-0.08418591055247004
1745333468.3427072,-1.011746,0.10961699999999999,-0.026108,-0.002623,-0.002745,0.004331,0.2315112540192926,-0.1619409529377375,-0.08418591055247004
1745333468.3455555,-1.012844,0.108824,-0.026962,-0.00183,-0.0023179999999999997,0.0046359999999999995,0.2315112540192926,-0.1619409529377375,-0.08783981292019877
1745333468.3483796,-1.012051,0.110471,-0.024217,-0.001586,-0.00244,0.0044529999999999995,0.2341420637240573,-0.1628178895059924,-0.08783981292019877
1745333468.3512113,-1.012478,0.110105,-0.025436999999999998,-0.0021349999999999997,-0.002745,0.0046359999999999995,0.2341420637240573,-0.1628178895059924,-0.08783981292019877
1745333468.354385,-1.011014,0.108519,-0.023363,-0.002562,-0.0028669999999999998,0.004209,0.2341420637240573,-0.1628178895059924,-0.08783981292019877
1745333468.357788,-1.01199,0.107787,-0.024399999999999998,-0.001647,-0.002562,0.004697,0.2341420637240573,-0.1628178895059924,-0.08783981292019877
1745333468.3607726,-1.011197,0.108336,-0.025193,-0.001586,-0.002074,0.004514,0.2341420637240573,-0.1628178895059924,-0.08783981292019877
1745333468.363596,-1.012173,0.108092,-0.024034,-0.001403,-0.001769,0.0042699999999999995,0.2341420637240573,-0.1628178895059924,-0.08783981292019877
1745333468.3664238,-1.015345,0.109495,-0.024888,-0.0013419999999999999,-0.0021349999999999997,0.004758,0.2341420637240573,-0.1628178895059924,-0.08783981292019877
1745333468.3692527,-1.018212,0.110288,-0.027816,-0.00183,-0.00244,0.005307,0.2341420637240573,-0.1628178895059924,-0.08783981292019877
1745333468.37207,-1.014735,0.110593,-0.023546,-0.0015249999999999999,-0.002196,0.0050019999999999995,0.2341420637240573,-0.1628178895059924,-0.08783981292019877
1745333468.37488,-1.013393,0.109373,-0.021838,-0.002013,-0.002379,0.004941,0.2341420637240573,-0.1628178895059924,-0.08783981292019877
1745333468.3776953,-1.00223,0.107177,-0.028487,-0.0017079999999999999,-0.002257,0.0042699999999999995,0.2341420637240573,-0.1628178895059924,-0.08783981292019877
1745333468.3805466,-1.012844,0.107177,-0.027632999999999998,-0.001952,-0.002379,0.004331,0.2341420637240573,-0.1628178895059924,-0.08783981292019877
1745333468.3833869,-1.014186,0.108214,-0.02867,-0.002745,-0.0030499999999999998,0.0042699999999999995,0.2341420637240573,-0.1628178895059924,-0.08783981292019877
1745333468.3865852,-1.013393,0.108397,-0.026779,-0.002196,-0.002745,0.004697,0.2341420637240573,-0.1628178895059924,-0.08783981292019877
1745333468.3906531,-1.009489,0.10900699999999999,-0.025863999999999998,-0.002257,-0.00244,0.004514,0.2341420637240573,-0.1628178895059924,-0.08783981292019877
1745333468.3938384,-1.012966,0.108153,-0.028914,-0.0025009999999999998,-0.002074,0.0040869999999999995,0.2341420637240573,-0.1628178895059924,-0.08783981292019877
1745333468.3967984,-1.014979,0.108031,-0.028364999999999998,-0.0021349999999999997,-0.0030499999999999998,0.0040869999999999995,0.2341420637240573,-0.1628178895059924,-0.08871674948845366
1745333468.3999226,-1.013027,0.108031,-0.023851,-0.001952,-0.0026839999999999998,0.004575,0.2315112540192926,-0.163402513884829,-0.08871674948845366
1745333468.4031665,-1.009062,0.107665,-0.023972999999999998,-0.0021349999999999997,-0.0018909999999999999,0.004575,0.2315112540192926,-0.163402513884829,-0.08871674948845366
1745333468.4062254,-1.010099,0.110288,-0.027023,-0.0021349999999999997,-0.00244,0.004697,0.2315112540192926,-0.163402513884829,-0.08871674948845366
1745333468.4090717,-1.014247,0.108397,-0.026352,-0.002013,-0.0023179999999999997,0.0042699999999999995,0.2315112540192926,-0.163402513884829,-0.08871674948845366
1745333468.411888,-1.012356,0.111447,-0.023363,-0.002379,-0.002013,0.0042699999999999995,0.2315112540192926,-0.163402513884829,-0.08871674948845366
1745333468.4147449,-1.012844,0.110288,-0.020496,-0.00183,-0.002257,0.004758,0.2315112540192926,-0.163402513884829,-0.08871674948845366
1745333468.41791,-1.011807,0.10790899999999999,-0.022875,-0.0021349999999999997,-0.0023179999999999997,0.004575,0.2315112540192926,-0.163402513884829,-0.08871674948845366
1745333468.421451,-1.014918,0.108641,-0.023972999999999998,-0.002196,-0.0023179999999999997,0.004758,0.2315112540192926,-0.163402513884829,-0.08871674948845366
1745333468.4244473,-1.013942,0.110898,-0.025071,-0.002196,-0.0026839999999999998,0.004758,0.2315112540192926,-0.163402513884829,-0.08871674948845366
1745333468.4272761,-1.011014,0.108336,-0.02501,-0.0017079999999999999,-0.002806,0.0048189999999999995,0.2315112540192926,-0.163402513884829,-0.08871674948845366
1745333468.4301455,-1.014979,0.108092,-0.02501,-0.00183,-0.002562,0.004697,0.2315112540192926,-0.163402513884829,-0.08871674948845366
1745333468.432977,-1.012051,0.10900699999999999,-0.022631,-0.0021349999999999997,-0.002928,0.00488,0.2315112540192926,-0.163402513884829,-0.08871674948845366
1745333468.4357886,-1.014857,0.1098,-0.026047,-0.00183,-0.0026839999999999998,0.003965,0.2315112540192926,-0.163402513884829,-0.08871674948845366
1745333468.438604,-1.014918,0.108458,-0.022631,-0.002379,-0.002745,0.0050019999999999995,0.2315112540192926,-0.163402513884829,-0.08871674948845366
1745333468.4414284,-1.018212,0.109129,-0.026474,-0.0025009999999999998,-0.002379,0.004941,0.2315112540192926,-0.163402513884829,-0.08871674948845366
1745333468.4442487,-1.014552,0.10699399999999999,-0.026168999999999998,-0.0015249999999999999,-0.001464,0.004697,0.2315112540192926,-0.163402513884829,-0.08871674948845366
1745333468.4471126,-1.010404,0.110349,-0.022265,-0.001952,-0.001586,0.005124,0.2315112540192926,-0.163402513884829,-0.08871674948845366
1745333468.4504313,-1.015162,0.10675,-0.02562,-0.0015249999999999999,-0.001769,0.004758,0.23911137094416837,-0.16749488453668518,-0.09733995907629348
1745333468.4537394,-1.01382,0.10797,-0.027023,-0.002379,-0.0018909999999999999,0.004209,0.23911137094416837,-0.16749488453668518,-0.09733995907629348
1745333468.4566078,-1.015345,0.107665,-0.025863999999999998,-0.002257,-0.002196,0.004026,0.23911137094416837,-0.16749488453668518,-0.09733995907629348
1745333468.4594297,-1.016748,0.109861,-0.026413,-0.002013,-0.00244,0.0044529999999999995,0.23911137094416837,-0.16749488453668518,-0.09733995907629348
1745333468.4622943,-1.014796,0.109373,-0.027632999999999998,-0.002074,-0.001403,0.004697,0.23911137094416837,-0.16749488453668518,-0.09733995907629348
1745333468.4651318,-1.012722,0.108336,-0.026900999999999998,-0.001403,-0.0021349999999999997,0.004575,0.23911137094416837,-0.16749488453668518,-0.09733995907629348
1745333468.4679751,-1.012112,0.108397,-0.030378,-0.002074,-0.0018909999999999999,0.003904,0.23911137094416837,-0.16749488453668518,-0.09733995907629348
1745333468.4708312,-1.012295,0.108946,-0.029585,-0.0017079999999999999,-0.002745,0.0044529999999999995,0.23911137094416837,-0.16749488453668518,-0.09733995907629348
1745333468.47369,-1.014003,0.108153,-0.026718,-0.0018909999999999999,-0.0034159999999999998,0.0044529999999999995,0.23911137094416837,-0.16749488453668518,-0.09733995907629348
1745333468.4765213,-1.019005,0.107665,-0.026168999999999998,-0.0025009999999999998,-0.003721,0.005063,0.23911137094416837,-0.16749488453668518,-0.09733995907629348
1745333468.4795034,-1.016992,0.111203,-0.024704999999999998,-0.002257,-0.001281,0.004941,0.23911137094416837,-0.16749488453668518,-0.09733995907629348
1745333468.4828818,-1.009245,0.108641,-0.026352,-0.002257,-0.000915,0.00488,0.23911137094416837,-0.16749488453668518,-0.09733995907629348
1745333468.4861045,-1.007842,0.106811,-0.027572,-0.0018909999999999999,-0.002928,0.0042699999999999995,0.23911137094416837,-0.16749488453668518,-0.09733995907629348
1745333468.4893217,-1.009367,0.107177,-0.029585,-0.002379,-0.002379,0.0040869999999999995,0.23911137094416837,-0.16749488453668518,-0.09733995907629348
1745333468.492356,-1.019798,0.106201,-0.028304,-0.0025009999999999998,-0.002928,0.004392,0.23911137094416837,-0.16749488453668518,-0.09733995907629348
1745333468.4953752,-1.018334,0.108031,-0.024522,-0.0023179999999999997,-0.002745,0.004148,0.23911137094416837,-0.16749488453668518,-0.09733995907629348
1745333468.4983072,-1.015101,0.109983,-0.019825,-0.0023179999999999997,-0.001037,0.005063,0.23911137094416837,-0.16749488453668518,-0.09733995907629348
1745333468.501166,-1.010709,0.107482,-0.025436999999999998,-0.002074,-0.001586,0.004697,0.24554223911137094,-0.1598947676118094,-0.08681672025723473
1745333468.5040088,-1.013149,0.108641,-0.029951,-0.002074,-0.001647,0.004392,0.24554223911137094,-0.1598947676118094,-0.08681672025723473
1745333468.5068283,-1.01138,0.107177,-0.027327999999999998,-0.002257,-0.0026839999999999998,0.004331,0.24554223911137094,-0.1598947676118094,-0.08681672025723473
1745333468.5096755,-1.014064,0.1098,-0.02684,-0.0017079999999999999,-0.0028669999999999998,0.004148,0.24554223911137094,-0.1598947676118094,-0.08681672025723473
1745333468.5128727,-1.017785,0.108702,-0.027267,-0.002562,-0.003172,0.004514,0.24554223911137094,-0.1598947676118094,-0.08681672025723473
1745333468.516489,-1.016321,0.110898,-0.023424,-0.00183,-0.002623,0.0051849999999999995,0.24554223911137094,-0.1598947676118094,-0.08681672025723473
1745333468.5195048,-1.016199,0.108885,-0.026047,-0.0021349999999999997,-0.001586,0.0048189999999999995,0.24554223911137094,-0.1598947676118094,-0.08681672025723473
1745333468.5224998,-1.008818,0.108458,-0.02501,-0.00183,-0.001647,0.004392,0.24554223911137094,-0.1598947676118094,-0.08681672025723473
1745333468.5253649,-1.006134,0.107421,-0.022203999999999998,-0.0018909999999999999,-0.002257,0.0040869999999999995,0.24554223911137094,-0.1598947676118094,-0.08681672025723473
1745333468.5283475,-1.0126,0.107116,-0.023851,-0.002257,-0.002928,0.0048189999999999995,0.24554223911137094,-0.1598947676118094,-0.08681672025723473
1745333468.5312786,-1.015711,0.10729899999999999,-0.025498,-0.0017079999999999999,-0.003477,0.0042699999999999995,0.24554223911137094,-0.1598947676118094,-0.08681672025723473
1745333468.5343084,-1.019432,0.10900699999999999,-0.021106,-0.001952,-0.003172,0.004758,0.24554223911137094,-0.1598947676118094,-0.08681672025723473
1745333468.5372932,-1.014308,0.1098,-0.021716,-0.00183,-0.0015249999999999999,0.004758,0.24554223911137094,-0.1598947676118094,-0.08681672025723473
1745333468.5408154,-1.014491,0.109983,-0.026962,-0.002257,-0.000915,0.005063,0.24554223911137094,-0.1598947676118094,-0.08681672025723473
1745333468.5438898,-1.012722,0.109556,-0.026595999999999998,-0.0018909999999999999,-0.002379,0.004331,0.24554223911137094,-0.1598947676118094,-0.08681672025723473
1745333468.5478363,-1.011258,0.110471,-0.023241,-0.0021349999999999997,-0.002257,0.0044529999999999995,0.24554223911137094,-0.1598947676118094,-0.08681672025723473
1745333468.551107,-1.012722,0.110959,-0.023485,-0.0021349999999999997,-0.002379,0.0046359999999999995,0.23121894182987432,-0.1631102016954107,-0.08725518854136217
1745333468.554159,-1.014064,0.108214,-0.025498,-0.00183,-0.0028669999999999998,0.0044529999999999995,0.23121894182987432,-0.1631102016954107,-0.08725518854136217
1745333468.5570123,-1.018456,0.106933,-0.023972999999999998,-0.0017079999999999999,-0.002074,0.0044529999999999995,0.23121894182987432,-0.1631102016954107,-0.08725518854136217
1745333468.5599546,-1.014552,0.108458,-0.025986,-0.001769,-0.00122,0.004575,0.23121894182987432,-0.1631102016954107,-0.08725518854136217
1745333468.5629385,-1.008879,0.11041,-0.026291,-0.0023179999999999997,-0.0015249999999999999,0.004697,0.23121894182987432,-0.1631102016954107,-0.08725518854136217
1745333468.5658696,-1.011563,0.11053199999999999,-0.024278,-0.002257,-0.00244,0.004575,0.23121894182987432,-0.1631102016954107,-0.08725518854136217
1745333468.5688574,-1.011624,0.10797,-0.02257,-0.002196,-0.0030499999999999998,0.004575,0.23121894182987432,-0.1631102016954107,-0.08725518854136217
1745333468.5723846,-1.012905,0.108031,-0.023546,-0.0028669999999999998,-0.0023179999999999997,0.004697,0.23121894182987432,-0.1631102016954107,-0.08725518854136217
1745333468.5754719,-1.012112,0.11022699999999999,-0.024827,-0.0023179999999999997,-0.002074,0.0048189999999999995,0.23121894182987432,-0.1631102016954107,-0.08725518854136217
1745333468.5793815,-1.011929,0.109861,-0.025315,-0.002013,-0.002745,0.004575,0.23121894182987432,-0.1631102016954107,-0.08725518854136217
1745333468.582586,-1.011624,0.109861,-0.024766,-0.002074,-0.002928,0.0044529999999999995,0.23121894182987432,-0.1631102016954107,-0.08725518854136217
1745333468.5854473,-1.013637,0.107726,-0.024522,-0.001281,-0.002074,0.004697,0.23121894182987432,-0.1631102016954107,-0.08725518854136217
1745333468.5882726,-1.009184,0.10729899999999999,-0.025803,-0.0013419999999999999,-0.001586,0.0044529999999999995,0.23121894182987432,-0.1631102016954107,-0.08725518854136217
1745333468.591087,-1.011685,0.10638399999999999,-0.026352,-0.002196,-0.002623,0.0046359999999999995,0.23121894182987432,-0.1631102016954107,-0.08725518854136217
1745333468.593911,-1.012112,0.108397,-0.025254,-0.002013,-0.003294,0.004331,0.23121894182987432,-0.1631102016954107,-0.08725518854136217
1745333468.5967681,-1.016138,0.110349,-0.024888,-0.0018909999999999999,-0.002806,0.0046359999999999995,0.23121894182987432,-0.1631102016954107,-0.08725518854136217
1745333468.5995882,-1.014918,0.10858,-0.026595999999999998,-0.001952,-0.00244,0.004575,0.23121894182987432,-0.1631102016954107,-0.08725518854136217
1745333468.6024115,-1.011929,0.10760399999999999,-0.026291,-0.00183,-0.002928,0.004758,0.23501900029231218,-0.1666179479684303,-0.0903244665302543
1745333468.605274,-1.013027,0.109556,-0.02501,-0.0023179999999999997,-0.0018909999999999999,0.004758,0.23501900029231218,-0.1666179479684303,-0.0903244665302543
1745333468.6086116,-1.011929,0.107726,-0.023851,-0.00244,-0.0018909999999999999,0.004148,0.23501900029231218,-0.1666179479684303,-0.0903244665302543
1745333468.6119254,-1.014308,0.108763,-0.025742,-0.0023179999999999997,-0.0021349999999999997,0.004148,0.23501900029231218,-0.1666179479684303,-0.0903244665302543
1745333468.6148007,-1.010343,0.108336,-0.023912,-0.002257,-0.00183,0.004758,0.23501900029231218,-0.1666179479684303,-0.0903244665302543
1745333468.6176403,-1.013271,0.110105,-0.027572,-0.0018909999999999999,-0.002623,0.0046359999999999995,0.23501900029231218,-0.1666179479684303,-0.0903244665302543
1745333468.6204665,-1.012112,0.108458,-0.023667999999999998,-0.0021349999999999997,-0.002074,0.004514,0.23501900029231218,-0.1666179479684303,-0.0903244665302543
1745333468.6232798,-1.007598,0.10919,-0.023912,-0.002013,-0.0017079999999999999,0.0042699999999999995,0.23501900029231218,-0.1666179479684303,-0.0903244665302543
1745333468.6261022,-1.009184,0.110471,-0.025498,-0.00183,-0.0026839999999999998,0.004697,0.23501900029231218,-0.1666179479684303,-0.0903244665302543
1745333468.6289628,-1.012051,0.108092,-0.028548,-0.0021349999999999997,-0.003111,0.004514,0.23501900029231218,-0.1666179479684303,-0.0903244665302543
1745333468.6318579,-1.011563,0.109739,-0.024095,-0.002379,-0.0021349999999999997,0.00488,0.23501900029231218,-0.1666179479684303,-0.0903244665302543
1745333468.6347058,-1.018029,0.109129,-0.027816,-0.002074,-0.001952,0.004697,0.23501900029231218,-0.1666179479684303,-0.0903244665302543
1745333468.6377022,-1.015406,0.107848,-0.027694,-0.0025009999999999998,-0.002074,0.0048189999999999995,0.23501900029231218,-0.1666179479684303,-0.0903244665302543
1745333468.6410859,-1.014308,0.10858,-0.026413,-0.002623,-0.002013,0.0044529999999999995,0.23501900029231218,-0.1666179479684303,-0.0903244665302543
1745333468.644327,-1.013454,0.109739,-0.026168999999999998,-0.0021349999999999997,-0.002989,0.004331,0.23501900029231218,-0.1666179479684303,-0.0903244665302543
1745333468.6471887,-1.012356,0.110288,-0.023241,-0.0017079999999999999,-0.0025009999999999998,0.003965,0.23501900029231218,-0.1666179479684303,-0.0903244665302543
1745333468.6500785,-1.012966,0.111569,-0.024156,-0.002013,-0.002623,0.0051849999999999995,0.23501900029231218,-0.1666179479684303,-0.0903244665302543
1745333468.6529038,-1.014247,0.110654,-0.027267,-0.0025009999999999998,-0.00244,0.004697,0.23501900029231218,-0.1666179479684303,-0.08579362759427069
1745333468.6557167,-1.014186,0.109556,-0.02562,-0.002257,-0.001952,0.005063,0.23735749780765858,-0.16135632855890092,-0.08579362759427069
1745333468.658532,-1.011929,0.10931199999999999,-0.023851,-0.0021349999999999997,-0.002623,0.0048189999999999995,0.23735749780765858,-0.16135632855890092,-0.08579362759427069
1745333468.6613572,-1.015162,0.108031,-0.027938,-0.002379,-0.002379,0.00488,0.23735749780765858,-0.16135632855890092,-0.08579362759427069
1745333468.6642342,-1.016138,0.108458,-0.026900999999999998,-0.0025009999999999998,-0.002745,0.003904,0.23735749780765858,-0.16135632855890092,-0.08579362759427069
1745333468.6671398,-1.01382,0.1098,-0.023912,-0.001769,-0.002196,0.004697,0.23735749780765858,-0.16135632855890092,-0.08579362759427069
1745333468.6703227,-1.011807,0.10992199999999999,-0.023363,-0.002013,-0.002257,0.0048189999999999995,0.23735749780765858,-0.16135632855890092,-0.08579362759427069
1745333468.6737964,-1.011868,0.107848,-0.023302,-0.002562,-0.002806,0.0046359999999999995,0.23735749780765858,-0.16135632855890092,-0.08579362759427069
1745333468.6768348,-1.014552,0.10729899999999999,-0.024522,-0.001952,-0.0025009999999999998,0.004392,0.23735749780765858,-0.16135632855890092,-0.08579362759427069
1745333468.679827,-1.01626,0.108153,-0.024888,-0.0018909999999999999,-0.002379,0.004209,0.23735749780765858,-0.16135632855890092,-0.08579362759427069
1745333468.68271,-1.014003,0.108519,-0.024034,-0.001586,-0.002196,0.0042699999999999995,0.23735749780765858,-0.16135632855890092,-0.08579362759427069
1745333468.6856954,-1.01626,0.108153,-0.026535,-0.0018909999999999999,-0.002257,0.004575,0.23735749780765858,-0.16135632855890092,-0.08579362759427069
1745333468.6887522,-1.01504,0.10858,-0.025559,-0.0023179999999999997,-0.0023179999999999997,0.004392,0.23735749780765858,-0.16135632855890092,-0.08579362759427069
1745333468.6916168,-1.013576,0.11041,-0.021594,-0.001647,-0.0025009999999999998,0.0040869999999999995,0.23735749780765858,-0.16135632855890092,-0.08579362759427069
1745333468.6946313,-1.0126,0.109129,-0.025071,-0.001769,-0.002074,0.004331,0.23735749780765858,-0.16135632855890092,-0.08579362759427069
1745333468.698333,-1.011502,0.10992199999999999,-0.023607,-0.0023179999999999997,-0.002257,0.004514,0.23735749780765858,-0.16135632855890092,-0.08579362759427069
1745333468.7015324,-1.010343,0.108092,-0.031171,-0.00183,-0.00244,0.004697,0.23735749780765858,-0.16135632855890092,-0.08579362759427069
1745333468.705452,-1.015955,0.107787,-0.030439,-0.002013,-0.002623,0.0037819999999999998,0.24554223911137094,-0.160479391990646,-0.09076293481438176
1745333468.7086704,-1.015528,0.108763,-0.028121,-0.001769,-0.0026839999999999998,0.00488,0.24554223911137094,-0.160479391990646,-0.09076293481438176
1745333468.711554,-1.015894,0.10900699999999999,-0.028121,-0.002379,-0.002074,0.00488,0.24554223911137094,-0.160479391990646,-0.09076293481438176
1745333468.714464,-1.011563,0.109129,-0.029096999999999998,-0.0021349999999999997,-0.0021349999999999997,0.004758,0.24554223911137094,-0.160479391990646,-0.09076293481438176
1745333468.717301,-1.013088,0.108702,-0.027389,-0.001586,-0.002074,0.004941,0.24554223911137094,-0.160479391990646,-0.09076293481438176
1745333468.7201233,-1.0126,0.10961699999999999,-0.02257,-0.0023179999999999997,-0.002074,0.004941,0.24554223911137094,-0.160479391990646,-0.09076293481438176
1745333468.7229352,-1.014796,0.109556,-0.025315,-0.002379,-0.0025009999999999998,0.004026,0.24554223911137094,-0.160479391990646,-0.09076293481438176
1745333468.7257519,-1.012051,0.106262,-0.027084,-0.0023179999999999997,-0.002379,0.0035989999999999998,0.24554223911137094,-0.160479391990646,-0.09076293481438176
1745333468.728566,-1.01138,0.106201,-0.029828999999999998,-0.002013,-0.002196,0.004392,0.24554223911137094,-0.160479391990646,-0.09076293481438176
1745333468.7314222,-1.018822,0.106567,-0.028731,-0.0026839999999999998,-0.0040869999999999995,0.004514,0.24554223911137094,-0.160479391990646,-0.09076293481438176
