Timestamp,Accel X,Accel Y,Accel Z,Gyro X,Gyro Y,Gyro Z,Magneto X,Magneto Y,Magneto Z
1745333269.5090976,-1.010709,0.105408,-0.025376,-0.002013,-0.002074,0.004575,0.24349605378544284,-0.16924875767319497,-0.0822858813212511
1745333269.5187209,-1.016321,0.10577399999999999,-0.023119,-0.002379,-0.003294,0.0044529999999999995,0.24349605378544284,-0.16924875767319497,-0.0822858813212511
1745333269.5284145,-1.011807,0.105103,-0.023485,-0.002013,-0.002379,0.004514,0.24349605378544284,-0.16924875767319497,-0.0822858813212511
1745333269.5381079,-1.014674,0.105164,-0.023485,-0.002013,-0.0023179999999999997,0.0048189999999999995,0.24349605378544284,-0.16924875767319497,-0.0822858813212511
1745333269.547848,-1.01199,0.10729899999999999,-0.02501,-0.0015249999999999999,-0.0018909999999999999,0.0050019999999999995,0.24349605378544284,-0.16924875767319497,-0.0822858813212511
1745333269.557454,-1.014186,0.106811,-0.02562,-0.002013,-0.00244,0.0046359999999999995,0.24349605378544284,-0.16924875767319497,-0.0822858813212511
1745333269.5671449,-1.013332,0.107055,-0.025559,-0.0021349999999999997,-0.002196,0.0046359999999999995,0.24349605378544284,-0.16924875767319497,-0.0822858813212511
1745333269.576892,-1.011746,0.106933,-0.023363,-0.002013,-0.0025009999999999998,0.004392,0.24349605378544284,-0.16924875767319497,-0.0822858813212511
1745333269.5865147,-1.013881,0.106201,-0.024644,-0.002074,-0.00244,0.0046359999999999995,0.24349605378544284,-0.16924875767319497,-0.0822858813212511
1745333269.596195,-1.013271,0.105896,-0.024217,-0.002196,-0.002257,0.004575,0.24349605378544284,-0.16924875767319497,-0.0822858813212511
1745333269.6060045,-1.01443,0.104615,-0.025131999999999998,-0.0023179999999999997,-0.0025009999999999998,0.004575,0.24349605378544284,-0.16924875767319497,-0.0822858813212511
1745333269.6155865,-1.0126,0.10467599999999999,-0.025376,-0.002257,-0.002013,0.004575,0.24349605378544284,-0.16924875767319497,-0.0822858813212511
1745333269.6252623,-1.014369,0.104798,-0.025071,-0.002257,-0.0021349999999999997,0.004575,0.2335574393452207,-0.1657410114001754,-0.07570885705933937
1745333269.6351697,-1.01016,0.105896,-0.026413,-0.002013,-0.002013,0.004514,0.2335574393452207,-0.1657410114001754,-0.07570885705933937
1745333269.644643,-1.013088,0.106811,-0.025803,-0.002074,-0.0025009999999999998,0.004392,0.2335574393452207,-0.1657410114001754,-0.07570885705933937
1745333269.6543064,-1.011075,0.105957,-0.02623,-0.0021349999999999997,-0.0025009999999999998,0.004331,0.2335574393452207,-0.1657410114001754,-0.07570885705933937
1745333269.6642058,-1.011502,0.104249,-0.024949,-0.0023179999999999997,-0.002745,0.004148,0.2335574393452207,-0.1657410114001754,-0.07570885705933937
1745333269.6737275,-1.016992,0.103212,-0.023119,-0.002257,-0.002745,0.0044529999999999995,0.2335574393452207,-0.1657410114001754,-0.07570885705933937
1745333269.6833715,-1.019005,0.103334,-0.022021,-0.001952,-0.002379,0.004758,0.2335574393452207,-0.1657410114001754,-0.07570885705933937
1745333269.693089,-1.011746,0.104127,-0.023058,-0.00183,-0.002074,0.004514,0.2335574393452207,-0.1657410114001754,-0.07570885705933937
1745333269.7027812,-1.012112,0.106506,-0.02379,-0.0017079999999999999,-0.002013,0.004758,0.2335574393452207,-0.1657410114001754,-0.07570885705933937
1745333269.7124186,-1.014735,0.109495,-0.02135,-0.001586,-0.002074,0.00488,0.2335574393452207,-0.1657410114001754,-0.07570885705933937
1745333269.7220902,-1.013576,0.111203,-0.02379,-0.001769,-0.00183,0.004758,0.2335574393452207,-0.1657410114001754,-0.07570885705933937
1745333269.7318313,-1.010465,0.110776,-0.026047,-0.0018909999999999999,-0.002013,0.0048189999999999995,0.2335574393452207,-0.1657410114001754,-0.07570885705933937
1745333269.7414696,-1.010892,0.112667,-0.031598,-0.0021349999999999997,-0.0018909999999999999,0.004758,0.2335574393452207,-0.1657410114001754,-0.07570885705933937
1745333269.751145,-1.014613,0.10919,-0.033123,-0.002379,-0.0026839999999999998,0.004392,0.2335574393452207,-0.1657410114001754,-0.07570885705933937
1745333269.760927,-1.012783,0.10315099999999999,-0.031964,-0.00244,-0.003721,0.003843,0.2335574393452207,-0.1657410114001754,-0.07570885705933937
1745333269.7705173,-1.014125,0.097539,-0.027632999999999998,-0.002257,-0.002745,0.0042699999999999995,0.2335574393452207,-0.1657410114001754,-0.07570885705933937
1745333269.780193,-1.015284,0.09698999999999999,-0.024888,-0.002074,-0.0013419999999999999,0.004941,0.2335574393452207,-0.1657410114001754,-0.07570885705933937
1745333269.790113,-1.012112,0.103395,-0.025803,-0.002013,-0.001037,0.005124,0.2335574393452207,-0.1657410114001754,-0.07570885705933937
1745333269.7995837,-1.012478,0.107726,-0.023972999999999998,-0.002013,-0.002928,0.0046359999999999995,0.2335574393452207,-0.1657410114001754,-0.07570885705933937
1745333269.8092577,-1.011258,0.109678,-0.023363,-0.0021349999999999997,-0.0026839999999999998,0.004514,0.2335574393452207,-0.1657410114001754,-0.07570885705933937
1745333269.8191621,-1.013454,0.110654,-0.022753,-0.0017079999999999999,-0.00183,0.004758,0.2335574393452207,-0.1657410114001754,-0.07570885705933937
1745333269.8286972,-1.011197,0.10992199999999999,-0.021838,-0.0018909999999999999,-0.0017079999999999999,0.004758,0.23881905875475007,-0.1619409529377375,-0.08725518854136217
1745333269.8383076,-1.012661,0.107238,-0.018361,-0.002379,-0.003111,0.0042699999999999995,0.23881905875475007,-0.1619409529377375,-0.08725518854136217
1745333269.8480108,-1.016321,0.10406599999999999,-0.018178,-0.0018909999999999999,-0.0032329999999999998,0.004148,0.23881905875475007,-0.1619409529377375,-0.08725518854136217
1745333269.8577254,-1.015833,0.104127,-0.019642,-0.0018909999999999999,-0.001952,0.0046359999999999995,0.23881905875475007,-0.1619409529377375,-0.08725518854136217
1745333269.867356,-1.012051,0.103822,-0.025254,-0.001647,-0.001037,0.0048189999999999995,0.23881905875475007,-0.1619409529377375,-0.08725518854136217
1745333269.8770251,-1.013515,0.105347,-0.028304,-0.0021349999999999997,-0.001769,0.0048189999999999995,0.23881905875475007,-0.1619409529377375,-0.08725518854136217
1745333269.8867636,-1.014003,0.10675,-0.031232,-0.00183,-0.002257,0.004514,0.23881905875475007,-0.1619409529377375,-0.08725518854136217
1745333269.8964033,-1.012051,0.104859,-0.032452,-0.001952,-0.002257,0.004697,0.23881905875475007,-0.1619409529377375,-0.08725518854136217
1745333269.9060674,-1.011258,0.10437099999999999,-0.031476,-0.002013,-0.002257,0.0048189999999999995,0.23881905875475007,-0.1619409529377375,-0.08725518854136217
1745333269.9158735,-1.014979,0.10492,-0.02684,-0.002562,-0.003172,0.004209,0.23881905875475007,-0.1619409529377375,-0.08725518854136217
1745333269.9254534,-1.013637,0.105042,-0.024644,-0.002196,-0.002989,0.004209,0.23881905875475007,-0.1619409529377375,-0.08725518854136217
1745333269.935136,-1.012661,0.104859,-0.022631,-0.002196,-0.0025009999999999998,0.004392,0.23881905875475007,-0.1619409529377375,-0.08725518854136217
1745333269.9450455,-1.013698,0.106262,-0.021716,-0.002257,-0.002196,0.00488,0.23881905875475007,-0.1619409529377375,-0.08725518854136217
1745333269.9545443,-1.015345,0.107787,-0.02257,-0.00183,-0.002257,0.004758,0.23881905875475007,-0.1619409529377375,-0.08725518854136217
1745333269.9642026,-1.012173,0.109251,-0.022692,-0.001952,-0.002257,0.004575,0.23881905875475007,-0.1619409529377375,-0.08725518854136217
1745333269.9740596,-1.011624,0.10961699999999999,-0.022935999999999998,-0.0018909999999999999,-0.00244,0.004697,0.23881905875475007,-0.1619409529377375,-0.08725518854136217
1745333269.9836097,-1.014003,0.108214,-0.025071,-0.002074,-0.0023179999999999997,0.0046359999999999995,0.23881905875475007,-0.1619409529377375,-0.08725518854136217
1745333269.9932508,-1.013881,0.106872,-0.025254,-0.002196,-0.002379,0.004514,0.23881905875475007,-0.1619409529377375,-0.08725518854136217
1745333270.0029554,-1.014064,0.10467599999999999,-0.024461,-0.001952,-0.0026839999999999998,0.004514,0.23881905875475007,-0.1619409529377375,-0.08725518854136217
1745333270.0126514,-1.012966,0.1037,-0.025071,-0.002074,-0.0025009999999999998,0.0046359999999999995,0.23881905875475007,-0.1619409529377375,-0.08725518854136217
1745333270.0222943,-1.01504,0.103517,-0.027389,-0.001952,-0.0023179999999999997,0.0046359999999999995,0.23881905875475007,-0.1619409529377375,-0.08725518854136217
1745333270.031977,-1.014125,0.103822,-0.028059999999999998,-0.002013,-0.0018909999999999999,0.004758,0.23706518561824028,-0.17012569424144988,-0.08389359836305174
1745333270.0417116,-1.013454,0.10498099999999999,-0.029096999999999998,-0.001647,-0.0021349999999999997,0.0048189999999999995,0.23706518561824028,-0.17012569424144988,-0.08389359836305174
1745333270.0513458,-1.011014,0.105652,-0.027145,-0.001647,-0.002379,0.004575,0.23706518561824028,-0.17012569424144988,-0.08389359836305174
1745333270.061009,-1.012417,0.106323,-0.02623,-0.002074,-0.002562,0.004575,0.23706518561824028,-0.17012569424144988,-0.08389359836305174
1745333270.0708153,-1.014186,0.107543,-0.022509,-0.00244,-0.002562,0.004392,0.23706518561824028,-0.17012569424144988,-0.08389359836305174
1745333270.0804,-1.014003,0.10760399999999999,-0.021716,-0.002623,-0.0026839999999999998,0.0046359999999999995,0.23706518561824028,-0.17012569424144988,-0.08389359836305174
1745333270.090061,-1.013332,0.10668899999999999,-0.020679,-0.002257,-0.002196,0.0046359999999999995,0.23706518561824028,-0.17012569424144988,-0.08389359836305174
1745333270.0999503,-1.012783,0.105896,-0.021045,-0.001952,-0.002379,0.004331,0.23706518561824028,-0.17012569424144988,-0.08389359836305174
1745333270.1094532,-1.014003,0.10699399999999999,-0.023667999999999998,-0.001586,-0.002013,0.004575,0.23706518561824028,-0.17012569424144988,-0.08389359836305174
1745333270.1191406,-1.015528,0.10607899999999999,-0.025863999999999998,-0.001586,-0.001952,0.004697,0.23706518561824028,-0.17012569424144988,-0.08389359836305174
1745333270.1312935,-1.0126,0.106933,-0.026535,-0.001952,-0.002013,0.004697,0.23706518561824028,-0.17012569424144988,-0.08389359836305174
1745333270.140677,-1.01321,0.105896,-0.027632999999999998,-0.002196,-0.002562,0.004575,0.23706518561824028,-0.17012569424144988,-0.08389359836305174
1745333270.1503587,-1.014796,0.105103,-0.027999,-0.002074,-0.002379,0.004392,0.23706518561824028,-0.17012569424144988,-0.08389359836305174
1745333270.1624897,-1.013393,0.104188,-0.025742,-0.002257,-0.00244,0.0044529999999999995,0.23706518561824028,-0.17012569424144988,-0.08389359836305174
1745333270.1718616,-1.013759,0.105286,-0.025986,-0.0021349999999999997,-0.002562,0.004392,0.23706518561824028,-0.17012569424144988,-0.08389359836305174
1745333270.1815488,-1.013759,0.105225,-0.025863999999999998,-0.0021349999999999997,-0.0023179999999999997,0.004514,0.23706518561824028,-0.17012569424144988,-0.08389359836305174
1745333270.192204,-1.01382,0.105835,-0.026291,-0.002013,-0.002074,0.0046359999999999995,0.23706518561824028,-0.17012569424144988,-0.08389359836305174
1745333270.200976,-1.014186,0.108275,-0.024339,-0.002196,-0.0023179999999999997,0.004514,0.23706518561824028,-0.17012569424144988,-0.08389359836305174
1745333270.2106333,-1.013515,0.10760399999999999,-0.024278,-0.0021349999999999997,-0.0025009999999999998,0.004575,0.23706518561824028,-0.17012569424144988,-0.08389359836305174
1745333270.2203393,-1.013271,0.107482,-0.023851,-0.002196,-0.002257,0.004575,0.23706518561824028,-0.17012569424144988,-0.08389359836305174
1745333270.2300582,-1.012783,0.106506,-0.023119,-0.001952,-0.002196,0.0046359999999999995,0.23706518561824028,-0.17012569424144988,-0.08389359836305174
1745333270.2396815,-1.013881,0.10577399999999999,-0.023729,-0.00183,-0.0025009999999999998,0.0044529999999999995,0.24554223911137094,-0.1619409529377375,-0.0790704472376498
1745333270.2493982,-1.014308,0.105591,-0.023119,-0.00183,-0.0021349999999999997,0.004575,0.24554223911137094,-0.1619409529377375,-0.0790704472376498
1745333270.2591715,-1.013759,0.105286,-0.025559,-0.001769,-0.001769,0.004514,0.24554223911137094,-0.1619409529377375,-0.0790704472376498
1745333270.2688136,-1.014796,0.105347,-0.026718,-0.001952,-0.002196,0.004697,0.24554223911137094,-0.1619409529377375,-0.0790704472376498
1745333270.2784753,-1.014674,0.10553,-0.027877,-0.001952,-0.0021349999999999997,0.004697,0.24554223911137094,-0.1619409529377375,-0.0790704472376498
1745333270.2883518,-1.013027,0.106262,-0.026900999999999998,-0.002074,-0.00244,0.004575,0.24554223911137094,-0.1619409529377375,-0.0790704472376498
1745333270.29792,-1.01321,0.105896,-0.026352,-0.002257,-0.002745,0.0044529999999999995,0.24554223911137094,-0.1619409529377375,-0.0790704472376498
1745333270.307583,-1.013881,0.105469,-0.025498,-0.0023179999999999997,-0.0025009999999999998,0.004392,0.24554223911137094,-0.1619409529377375,-0.0790704472376498
1745333270.3175297,-1.014064,0.105408,-0.022448,-0.002013,-0.00244,0.004392,0.24554223911137094,-0.1619409529377375,-0.0790704472376498
1745333270.3270023,-1.013515,0.106323,-0.023729,-0.001952,-0.002196,0.004392,0.24554223911137094,-0.1619409529377375,-0.0790704472376498
1745333270.3366575,-1.012966,0.106323,-0.024278,-0.0021349999999999997,-0.0025009999999999998,0.004514,0.24554223911137094,-0.1619409529377375,-0.0790704472376498
1745333270.3465393,-1.014796,0.106872,-0.024766,-0.001952,-0.002257,0.004697,0.24554223911137094,-0.1619409529377375,-0.0790704472376498
1745333270.3560793,-1.012356,0.10675,-0.025498,-0.002013,-0.001952,0.004575,0.24554223911137094,-0.1619409529377375,-0.0790704472376498
1745333270.3657544,-1.014186,0.106567,-0.024217,-0.0018909999999999999,-0.0021349999999999997,0.004697,0.24554223911137094,-0.1619409529377375,-0.0790704472376498
1745333270.3755987,-1.012905,0.10577399999999999,-0.02562,-0.0021349999999999997,-0.002074,0.0046359999999999995,0.24554223911137094,-0.1619409529377375,-0.0790704472376498
1745333270.3851442,-1.01382,0.10553,-0.023972999999999998,-0.00183,-0.0025009999999999998,0.004697,0.24554223911137094,-0.1619409529377375,-0.0790704472376498
1745333270.3948445,-1.014674,0.106201,-0.024522,-0.002074,-0.00244,0.004514,0.24554223911137094,-0.1619409529377375,-0.0790704472376498
1745333270.404617,-1.013576,0.105225,-0.02379,-0.0021349999999999997,-0.00244,0.004514,0.24554223911137094,-0.1619409529377375,-0.0790704472376498
1745333270.4142675,-1.014247,0.105652,-0.024766,-0.002196,-0.002379,0.004575,0.24554223911137094,-0.1619409529377375,-0.0790704472376498
1745333270.423861,-1.013576,0.106262,-0.025863999999999998,-0.002013,-0.0023179999999999997,0.0048189999999999995,0.24554223911137094,-0.1619409529377375,-0.0790704472376498
1745333270.4335434,-1.012173,0.106933,-0.025803,-0.002074,-0.0021349999999999997,0.004575,0.24554223911137094,-0.1619409529377375,-0.0790704472376498
1745333270.4434366,-1.012844,0.10760399999999999,-0.024583,-0.0021349999999999997,-0.0023179999999999997,0.004758,0.24057293189125986,-0.16807950891552179,-0.08550131540485238
1745333270.452981,-1.013271,0.106262,-0.025803,-0.002074,-0.0023179999999999997,0.004514,0.24057293189125986,-0.16807950891552179,-0.08550131540485238
1745333270.4626915,-1.012173,0.105469,-0.024827,-0.002257,-0.0023179999999999997,0.004575,0.24057293189125986,-0.16807950891552179,-0.08550131540485238
1745333270.4726644,-1.01382,0.105835,-0.024888,-0.002013,-0.002379,0.004575,0.24057293189125986,-0.16807950891552179,-0.08550131540485238
1745333270.4820514,-1.014308,0.105286,-0.024766,-0.0021349999999999997,-0.002257,0.0046359999999999995,0.24057293189125986,-0.16807950891552179,-0.08550131540485238
1745333270.4920323,-1.014125,0.106323,-0.024888,-0.002196,-0.002074,0.004331,0.24057293189125986,-0.16807950891552179,-0.08550131540485238
1745333270.5017223,-1.01382,0.10675,-0.025681,-0.0021349999999999997,-0.002074,0.004392,0.24057293189125986,-0.16807950891552179,-0.08550131540485238
1745333270.5113904,-1.013393,0.105713,-0.025986,-0.00183,-0.0025009999999999998,0.0046359999999999995,0.24057293189125986,-0.16807950891552179,-0.08550131540485238
1745333270.5210502,-1.014247,0.105896,-0.025803,-0.001952,-0.002074,0.004514,0.24057293189125986,-0.16807950891552179,-0.08550131540485238
1745333270.5307226,-1.011746,0.10607899999999999,-0.025559,-0.002257,-0.002562,0.004331,0.24057293189125986,-0.16807950891552179,-0.08550131540485238
1745333270.5404553,-1.015589,0.105408,-0.025436999999999998,-0.002013,-0.00244,0.004514,0.24057293189125986,-0.16807950891552179,-0.08550131540485238
1745333270.55013,-1.013088,0.10467599999999999,-0.026168999999999998,-0.001952,-0.00244,0.0046359999999999995,0.24057293189125986,-0.16807950891552179,-0.08550131540485238
1745333270.5597627,-1.014491,0.104798,-0.027572,-0.0018909999999999999,-0.0018909999999999999,0.004758,0.24057293189125986,-0.16807950891552179,-0.08550131540485238
1745333270.5695632,-1.014308,0.106933,-0.024949,-0.0018909999999999999,-0.002257,0.004575,0.24057293189125986,-0.16807950891552179,-0.08550131540485238
1745333270.579176,-1.013454,0.106567,-0.025131999999999998,-0.002074,-0.0023179999999999997,0.004514,0.24057293189125986,-0.16807950891552179,-0.08550131540485238
1745333270.588833,-1.013454,0.106445,-0.024827,-0.002013,-0.002379,0.004514,0.24057293189125986,-0.16807950891552179,-0.08550131540485238
1745333270.5996518,-1.013881,0.10614,-0.026474,-0.002013,-0.002196,0.004514,0.24057293189125986,-0.16807950891552179,-0.08550131540485238
1745333270.6092007,-1.013271,0.10467599999999999,-0.025986,-0.0025009999999999998,-0.002196,0.004941,0.24057293189125986,-0.16807950891552179,-0.08550131540485238
1745333270.6188853,-1.01443,0.10675,-0.023851,-0.001952,-0.0025009999999999998,0.004758,0.24057293189125986,-0.16807950891552179,-0.08550131540485238
1745333270.6291404,-1.013271,0.105042,-0.025498,-0.002074,-0.001952,0.00488,0.24057293189125986,-0.16807950891552179,-0.08550131540485238
1745333270.6385226,-1.015528,0.105713,-0.024399999999999998,-0.002013,-0.00244,0.0046359999999999995,0.24057293189125986,-0.16807950891552179,-0.08550131540485238
1745333270.6481931,-1.012783,0.106018,-0.026108,-0.002013,-0.00183,0.004697,0.22946506869336453,-0.16866413329435836,-0.08769365682548963
1745333270.658105,-1.014613,0.105347,-0.025315,-0.0021349999999999997,-0.002562,0.004575,0.22946506869336453,-0.16866413329435836,-0.08769365682548963
1745333270.6676002,-1.012295,0.10638399999999999,-0.025803,-0.002013,-0.0021349999999999997,0.004575,0.22946506869336453,-0.16866413329435836,-0.08769365682548963
1745333270.6772733,-1.014857,0.10668899999999999,-0.024766,-0.002196,-0.002806,0.004209,0.22946506869336453,-0.16866413329435836,-0.08769365682548963
1745333270.686969,-1.011746,0.108031,-0.02501,-0.002074,-0.00244,0.0044529999999999995,0.22946506869336453,-0.16866413329435836,-0.08769365682548963
1745333270.696787,-1.013637,0.105408,-0.024644,-0.001952,-0.002745,0.004697,0.22946506869336453,-0.16866413329435836,-0.08769365682548963
1745333270.7063227,-1.012295,0.10553,-0.024399999999999998,-0.0021349999999999997,-0.002196,0.004575,0.22946506869336453,-0.16866413329435836,-0.08769365682548963
1745333270.7160077,-1.013759,0.106506,-0.023729,-0.0018909999999999999,-0.002196,0.004758,0.22946506869336453,-0.16866413329435836,-0.08769365682548963
1745333270.7257607,-1.013149,0.106262,-0.027327999999999998,-0.002257,-0.002074,0.004575,0.22946506869336453,-0.16866413329435836,-0.08769365682548963
1745333270.7354038,-1.0126,0.105652,-0.026718,-0.002196,-0.002257,0.004575,0.22946506869336453,-0.16866413329435836,-0.08769365682548963
1745333270.7450688,-1.013759,0.106445,-0.02623,-0.0018909999999999999,-0.002196,0.0046359999999999995,0.22946506869336453,-0.16866413329435836,-0.08769365682548963
1745333270.755155,-1.013576,0.105652,-0.026352,-0.002013,-0.0023179999999999997,0.004514,0.22946506869336453,-0.16866413329435836,-0.08769365682548963
1745333270.764535,-1.014003,0.106323,-0.024888,-0.0021349999999999997,-0.0025009999999999998,0.004758,0.22946506869336453,-0.16866413329435836,-0.08769365682548963
1745333270.774198,-1.013515,0.105896,-0.024583,-0.002257,-0.00244,0.004514,0.22946506869336453,-0.16866413329435836,-0.08769365682548963
1745333270.784123,-1.014064,0.10577399999999999,-0.024766,-0.0021349999999999997,-0.0025009999999999998,0.0044529999999999995,0.22946506869336453,-0.16866413329435836,-0.08769365682548963
1745333270.7936153,-1.013881,0.105652,-0.025376,-0.0021349999999999997,-0.00244,0.004392,0.22946506869336453,-0.16866413329435836,-0.08769365682548963
1745333270.8032916,-1.013271,0.105286,-0.025376,-0.002379,-0.002257,0.0044529999999999995,0.22946506869336453,-0.16866413329435836,-0.08769365682548963
1745333270.8131628,-1.012051,0.105164,-0.024034,-0.001952,-0.002196,0.0042699999999999995,0.22946506869336453,-0.16866413329435836,-0.08769365682548963
1745333270.8227038,-1.013515,0.105469,-0.025559,-0.002013,-0.0023179999999999997,0.004514,0.22946506869336453,-0.16866413329435836,-0.08769365682548963
1745333270.832341,-1.012173,0.10607899999999999,-0.024399999999999998,-0.0018909999999999999,-0.002379,0.004514,0.22946506869336453,-0.16866413329435836,-0.08769365682548963
1745333270.842037,-1.013149,0.104859,-0.025193,-0.002257,-0.002562,0.004575,0.22946506869336453,-0.16866413329435836,-0.08769365682548963
1745333270.8517873,-1.011502,0.10607899999999999,-0.024704999999999998,-0.0021349999999999997,-0.00244,0.0046359999999999995,0.23531131248173048,-0.1666179479684303,-0.08754750073078048
1745333270.8614213,-1.013515,0.10577399999999999,-0.024461,-0.002013,-0.0026839999999999998,0.0044529999999999995,0.23531131248173048,-0.1666179479684303,-0.08754750073078048
1745333270.8711002,-1.014003,0.106262,-0.026168999999999998,-0.002013,-0.002379,0.004575,0.23531131248173048,-0.1666179479684303,-0.08754750073078048
1745333270.8808277,-1.013515,0.105835,-0.024888,-0.002013,-0.0021349999999999997,0.004697,0.23531131248173048,-0.1666179479684303,-0.08754750073078048
1745333270.8904607,-1.013332,0.105957,-0.024888,-0.002013,-0.0021349999999999997,0.004575,0.23531131248173048,-0.1666179479684303,-0.08754750073078048
1745333270.900149,-1.014613,0.105408,-0.025498,-0.002257,-0.0023179999999999997,0.0044529999999999995,0.23531131248173048,-0.1666179479684303,-0.08754750073078048
1745333270.9099479,-1.013637,0.10638399999999999,-0.025863999999999998,-0.002196,-0.002257,0.004514,0.23531131248173048,-0.1666179479684303,-0.08754750073078048
1745333270.919579,-1.01382,0.10638399999999999,-0.024827,-0.0021349999999999997,-0.002074,0.004514,0.23531131248173048,-0.1666179479684303,-0.08754750073078048
1745333270.929204,-1.013881,0.106262,-0.024522,-0.002196,-0.002745,0.0046359999999999995,0.23531131248173048,-0.1666179479684303,-0.08754750073078048
1745333270.9391494,-1.013393,0.106201,-0.024827,-0.002074,-0.0023179999999999997,0.004392,0.23531131248173048,-0.1666179479684303,-0.08754750073078048
1745333270.9486177,-1.014003,0.104615,-0.023424,-0.00183,-0.0023179999999999997,0.004575,0.23531131248173048,-0.1666179479684303,-0.08754750073078048
1745333270.9582744,-1.013393,0.104737,-0.024217,-0.0023179999999999997,-0.002196,0.0046359999999999995,0.23531131248173048,-0.1666179479684303,-0.08754750073078048
1745333270.9681427,-1.01321,0.10638399999999999,-0.024217,-0.0018909999999999999,-0.002074,0.004514,0.23531131248173048,-0.1666179479684303,-0.08754750073078048
1745333270.9776857,-1.012905,0.106811,-0.025131999999999998,-0.00183,-0.0023179999999999997,0.004697,0.23531131248173048,-0.1666179479684303,-0.08754750073078048
1745333270.9873276,-1.012356,0.107177,-0.02501,-0.002013,-0.002623,0.004575,0.23531131248173048,-0.1666179479684303,-0.08754750073078048
1745333270.9970584,-1.01321,0.107482,-0.026779,-0.002013,-0.002196,0.0046359999999999995,0.23531131248173048,-0.1666179479684303,-0.08754750073078048
1745333271.0067494,-1.015711,0.10553,-0.026657,-0.001952,-0.0023179999999999997,0.004514,0.23531131248173048,-0.1666179479684303,-0.08754750073078048
1745333271.0163856,-1.012966,0.105408,-0.024766,-0.002013,-0.0025009999999999998,0.0046359999999999995,0.23531131248173048,-0.1666179479684303,-0.08754750073078048
1745333271.0260534,-1.013027,0.105408,-0.023302,-0.002013,-0.002562,0.004758,0.23531131248173048,-0.1666179479684303,-0.08754750073078048
1745333271.0357919,-1.012173,0.10638399999999999,-0.023119,-0.002196,-0.002013,0.004758,0.23531131248173048,-0.1666179479684303,-0.08754750073078048
1745333271.0454233,-1.01382,0.10668899999999999,-0.024888,-0.002013,-0.002257,0.0046359999999999995,0.23531131248173048,-0.1666179479684303,-0.08754750073078048
1745333271.0550976,-1.011441,0.106201,-0.024339,-0.002196,-0.0023179999999999997,0.004514,0.23706518561824028,-0.16720257234726688,-0.0814089447529962
1745333271.0648868,-1.013454,0.10553,-0.024156,-0.00244,-0.002379,0.004514,0.23706518561824028,-0.16720257234726688,-0.0814089447529962
1745333271.0745254,-1.011868,0.10638399999999999,-0.023912,-0.002074,-0.002379,0.0044529999999999995,0.23706518561824028,-0.16720257234726688,-0.0814089447529962
1745333271.0841687,-1.014674,0.105469,-0.024704999999999998,-0.002074,-0.002379,0.0046359999999999995,0.23706518561824028,-0.16720257234726688,-0.0814089447529962
1745333271.0940857,-1.014003,0.105652,-0.025376,-0.0018909999999999999,-0.0023179999999999997,0.004697,0.23706518561824028,-0.16720257234726688,-0.0814089447529962
1745333271.1035573,-1.013027,0.106506,-0.023851,-0.002257,-0.0023179999999999997,0.0044529999999999995,0.23706518561824028,-0.16720257234726688,-0.0814089447529962
1745333271.113235,-1.013637,0.105225,-0.026595999999999998,-0.001952,-0.001952,0.004575,0.23706518561824028,-0.16720257234726688,-0.0814089447529962
1745333271.123103,-1.01565,0.105957,-0.025254,-0.002196,-0.00244,0.0042699999999999995,0.23706518561824028,-0.16720257234726688,-0.0814089447529962
1745333271.1326406,-1.012722,0.104798,-0.025131999999999998,-0.0021349999999999997,-0.002379,0.004514,0.23706518561824028,-0.16720257234726688,-0.0814089447529962
1745333271.1422744,-1.013515,0.105347,-0.025193,-0.002196,-0.002562,0.004392,0.23706518561824028,-0.16720257234726688,-0.0814089447529962
1745333271.151981,-1.012722,0.106262,-0.024583,-0.002013,-0.002379,0.004575,0.23706518561824028,-0.16720257234726688,-0.0814089447529962
1745333271.1616912,-1.013393,0.105652,-0.024949,-0.002074,-0.002257,0.004514,0.23706518561824028,-0.16720257234726688,-0.0814089447529962
1745333271.1713247,-1.012722,0.105469,-0.023667999999999998,-0.002074,-0.002379,0.0044529999999999995,0.23706518561824028,-0.16720257234726688,-0.0814089447529962
1745333271.180998,-1.012844,0.106018,-0.024339,-0.002257,-0.00244,0.0046359999999999995,0.23706518561824028,-0.16720257234726688,-0.0814089447529962
1745333271.190735,-1.013881,0.106811,-0.024583,-0.002074,-0.002257,0.0046359999999999995,0.23706518561824028,-0.16720257234726688,-0.0814089447529962
1745333271.2003722,-1.012295,0.10668899999999999,-0.024827,-0.0021349999999999997,-0.0023179999999999997,0.0046359999999999995,0.23706518561824028,-0.16720257234726688,-0.0814089447529962
1745333271.210037,-1.015223,0.105896,-0.024583,-0.002074,-0.0025009999999999998,0.0044529999999999995,0.23706518561824028,-0.16720257234726688,-0.0814089447529962
1745333271.2198367,-1.01321,0.10668899999999999,-0.024339,-0.002013,-0.0023179999999999997,0.004575,0.23706518561824028,-0.16720257234726688,-0.0814089447529962
1745333271.2294178,-1.014491,0.10614,-0.024704999999999998,-0.002013,-0.0021349999999999997,0.004697,0.23706518561824028,-0.16720257234726688,-0.0814089447529962
1745333271.2390895,-1.013271,0.10614,-0.025071,-0.002196,-0.002196,0.0050019999999999995,0.23706518561824028,-0.16720257234726688,-0.0814089447529962
1745333271.248967,-1.0126,0.106018,-0.025193,-0.002074,-0.0023179999999999997,0.004575,0.23706518561824028,-0.16720257234726688,-0.0814089447529962
1745333271.258475,-1.013881,0.106201,-0.025925,-0.002013,-0.0023179999999999997,0.0046359999999999995,0.2347266881028939,-0.1666179479684303,-0.07497807658579363
1745333271.268167,-1.014125,0.105347,-0.02623,-0.0018909999999999999,-0.002196,0.004575,0.2347266881028939,-0.1666179479684303,-0.07497807658579363
1745333271.278023,-1.01321,0.10607899999999999,-0.026168999999999998,-0.002196,-0.002196,0.0046359999999999995,0.2347266881028939,-0.1666179479684303,-0.07497807658579363
1745333271.2875636,-1.012844,0.106262,-0.025376,-0.002196,-0.00244,0.004392,0.2347266881028939,-0.1666179479684303,-0.07497807658579363
1745333271.297197,-1.014308,0.105957,-0.024217,-0.0021349999999999997,-0.0023179999999999997,0.004392,0.2347266881028939,-0.1666179479684303,-0.07497807658579363
1745333271.3069048,-1.013698,0.106506,-0.024156,-0.002074,-0.0023179999999999997,0.004514,0.2347266881028939,-0.1666179479684303,-0.07497807658579363
1745333271.3166094,-1.0126,0.105835,-0.023972999999999998,-0.002013,-0.0021349999999999997,0.004575,0.2347266881028939,-0.1666179479684303,-0.07497807658579363
1745333271.3262393,-1.013027,0.10614,-0.026108,-0.0021349999999999997,-0.002074,0.004697,0.2347266881028939,-0.1666179479684303,-0.07497807658579363
1745333271.335906,-1.014247,0.105713,-0.025925,-0.002257,-0.0023179999999999997,0.004575,0.2347266881028939,-0.1666179479684303,-0.07497807658579363
1745333271.3456337,-1.012783,0.105286,-0.024766,-0.002196,-0.0021349999999999997,0.004392,0.2347266881028939,-0.1666179479684303,-0.07497807658579363
1745333271.3552663,-1.013576,0.10467599999999999,-0.025498,-0.00183,-0.002074,0.0044529999999999995,0.2347266881028939,-0.1666179479684303,-0.07497807658579363
1745333271.3649342,-1.013393,0.10577399999999999,-0.025193,-0.002013,-0.002257,0.004575,0.2347266881028939,-0.1666179479684303,-0.07497807658579363
1745333271.3747373,-1.014003,0.105652,-0.024766,-0.0021349999999999997,-0.0026839999999999998,0.004514,0.2347266881028939,-0.1666179479684303,-0.07497807658579363
1745333271.3843226,-1.012783,0.106506,-0.024583,-0.0021349999999999997,-0.002379,0.0046359999999999995,0.2347266881028939,-0.1666179479684303,-0.07497807658579363
1745333271.3940785,-1.01321,0.10577399999999999,-0.025071,-0.001952,-0.002379,0.004941,0.2347266881028939,-0.1666179479684303,-0.07497807658579363
1745333271.404409,-1.012966,0.106262,-0.024644,-0.002074,-0.002257,0.004697,0.2347266881028939,-0.1666179479684303,-0.07497807658579363
1745333271.4135194,-1.014125,0.106262,-0.025071,-0.002196,-0.00244,0.004575,0.2347266881028939,-0.1666179479684303,-0.07497807658579363
1745333271.4231617,-1.013271,0.10614,-0.025863999999999998,-0.002013,-0.0025009999999999998,0.004392,0.2347266881028939,-0.1666179479684303,-0.07497807658579363
1745333271.433032,-1.013393,0.10614,-0.025131999999999998,-0.0021349999999999997,-0.002562,0.0046359999999999995,0.2347266881028939,-0.1666179479684303,-0.07497807658579363
1745333271.4425766,-1.012905,0.106567,-0.025071,-0.002074,-0.002379,0.004575,0.2347266881028939,-0.1666179479684303,-0.07497807658579363
1745333271.4522183,-1.01443,0.106262,-0.023912,-0.00183,-0.00244,0.004758,0.2347266881028939,-0.1666179479684303,-0.07497807658579363
1745333271.4619098,-1.014247,0.106262,-0.023912,-0.00183,-0.002623,0.004758,0.2361882490499854,-0.1584332066647179,-0.08243203741596025
1745333271.4716256,-1.014003,0.105652,-0.024156,-0.0018909999999999999,-0.002379,0.004575,0.2361882490499854,-0.1584332066647179,-0.08243203741596025
1745333271.4812646,-1.010953,0.106018,-0.024095,-0.002013,-0.002257,0.004575,0.2361882490499854,-0.1584332066647179,-0.08243203741596025
1745333271.4910202,-1.012478,0.106201,-0.024949,-0.002196,-0.0025009999999999998,0.004514,0.2361882490499854,-0.1584332066647179,-0.08243203741596025
1745333271.5006797,-1.014979,0.106323,-0.025681,-0.002196,-0.002623,0.004575,0.2361882490499854,-0.1584332066647179,-0.08243203741596025
1745333271.5103028,-1.01321,0.105286,-0.025559,-0.0023179999999999997,-0.002379,0.004575,0.2361882490499854,-0.1584332066647179,-0.08243203741596025
1745333271.5199833,-1.012844,0.104859,-0.02745,-0.002196,-0.002257,0.0046359999999999995,0.2361882490499854,-0.1584332066647179,-0.08243203741596025
1745333271.5297868,-1.014491,0.105286,-0.025863999999999998,-0.0018909999999999999,-0.002379,0.004392,0.2361882490499854,-0.1584332066647179,-0.08243203741596025
1745333271.539365,-1.014003,0.106201,-0.026168999999999998,-0.001952,-0.0023179999999999997,0.004514,0.2361882490499854,-0.1584332066647179,-0.08243203741596025
1745333271.5490398,-1.013698,0.105103,-0.025803,-0.001952,-0.0025009999999999998,0.0044529999999999995,0.2361882490499854,-0.1584332066647179,-0.08243203741596025
1745333271.558957,-1.01382,0.106628,-0.023729,-0.0018909999999999999,-0.0023179999999999997,0.004697,0.2361882490499854,-0.1584332066647179,-0.08243203741596025
1745333271.5684354,-1.012722,0.10638399999999999,-0.024034,-0.002013,-0.002257,0.004575,0.2361882490499854,-0.1584332066647179,-0.08243203741596025
1745333271.5781,-1.012844,0.106323,-0.023302,-0.001952,-0.002379,0.0044529999999999995,0.2361882490499854,-0.1584332066647179,-0.08243203741596025
1745333271.5879824,-1.014247,0.106811,-0.024583,-0.0023179999999999997,-0.002074,0.004514,0.2361882490499854,-0.1584332066647179,-0.08243203741596025
1745333271.5975144,-1.011563,0.105835,-0.025376,-0.0018909999999999999,-0.001769,0.004575,0.2361882490499854,-0.1584332066647179,-0.08243203741596025
1745333271.6071582,-1.013576,0.106933,-0.026108,-0.0021349999999999997,-0.002562,0.004392,0.2361882490499854,-0.1584332066647179,-0.08243203741596025
1745333271.616853,-1.01077,0.10498099999999999,-0.027389,-0.0021349999999999997,-0.0021349999999999997,0.0044529999999999995,0.2361882490499854,-0.1584332066647179,-0.08243203741596025
1745333271.626572,-1.017541,0.105469,-0.025803,-0.002379,-0.003294,0.0042699999999999995,0.2361882490499854,-0.1584332066647179,-0.08243203741596025
1745333271.6362195,-1.012051,0.106201,-0.027511,-0.002013,-0.001769,0.004697,0.2361882490499854,-0.1584332066647179,-0.08243203741596025
1745333271.645879,-1.015589,0.105408,-0.023302,-0.0021349999999999997,-0.003172,0.004514,0.2361882490499854,-0.1584332066647179,-0.08243203741596025
1745333271.655613,-1.011685,0.10553,-0.024399999999999998,-0.002257,-0.002013,0.00488,0.2361882490499854,-0.1584332066647179,-0.08243203741596025
1745333271.665263,-1.015894,0.105408,-0.022753,-0.002074,-0.002745,0.004331,0.2361882490499854,-0.16691026015784857,-0.08272434960537854
1745333271.6749141,-1.011136,0.105652,-0.023424,-0.002013,-0.0018909999999999999,0.0046359999999999995,0.23531131248173048,-0.16691026015784857,-0.08272434960537854
1745333271.6847122,-1.014186,0.107177,-0.024217,-0.0023179999999999997,-0.002196,0.004575,0.23531131248173048,-0.16691026015784857,-0.08272434960537854
1745333271.694296,-1.010892,0.106872,-0.027694,-0.002196,-0.002013,0.004575,0.23531131248173048,-0.16691026015784857,-0.08272434960537854
1745333271.703977,-1.015528,0.106323,-0.024888,-0.0021349999999999997,-0.002623,0.004575,0.23531131248173048,-0.16691026015784857,-0.08272434960537854
1745333271.7139132,-1.013332,0.10577399999999999,-0.026535,-0.002074,-0.002257,0.0046359999999999995,0.23531131248173048,-0.16691026015784857,-0.08272434960537854
1745333271.723355,-1.014674,0.105042,-0.025498,-0.002196,-0.00244,0.004575,0.23531131248173048,-0.16691026015784857,-0.08272434960537854
1745333271.7330296,-1.013515,0.105103,-0.025498,-0.001952,-0.002379,0.004575,0.23531131248173048,-0.16691026015784857,-0.08272434960537854
1745333271.7429173,-1.014674,0.105225,-0.026352,-0.001586,-0.002379,0.004514,0.23531131248173048,-0.16691026015784857,-0.08272434960537854
1745333271.7524388,-1.013393,0.10614,-0.02562,-0.001769,-0.00244,0.004575,0.23531131248173048,-0.16691026015784857,-0.08272434960537854
1745333271.762074,-1.013698,0.10614,-0.025742,-0.002074,-0.0021349999999999997,0.004575,0.23531131248173048,-0.16691026015784857,-0.08272434960537854
1745333271.7717874,-1.013393,0.104859,-0.025254,-0.002257,-0.0023179999999999997,0.004392,0.23531131248173048,-0.16691026015784857,-0.08272434960537854
1745333271.7814891,-1.012966,0.106933,-0.025436999999999998,-0.002074,-0.002745,0.0044529999999999995,0.23531131248173048,-0.16691026015784857,-0.08272434960537854
1745333271.7911177,-1.014491,0.106811,-0.024034,-0.002257,-0.002623,0.004758,0.23531131248173048,-0.16691026015784857,-0.08272434960537854
1745333271.8007932,-1.014064,0.106628,-0.024095,-0.002196,-0.002257,0.00488,0.23531131248173048,-0.16691026015784857,-0.08272434960537854
1745333271.8105326,-1.013332,0.10638399999999999,-0.024644,-0.002257,-0.002196,0.004575,0.23531131248173048,-0.16691026015784857,-0.08272434960537854
1745333271.820168,-1.014491,0.10638399999999999,-0.025436999999999998,-0.002196,-0.002257,0.004575,0.23531131248173048,-0.16691026015784857,-0.08272434960537854
1745333271.8298333,-1.014674,0.105896,-0.026291,-0.0021349999999999997,-0.002013,0.004697,0.23531131248173048,-0.16691026015784857,-0.08272434960537854
1745333271.839641,-1.011685,0.105469,-0.025863999999999998,-0.002013,-0.002196,0.0046359999999999995,0.23531131248173048,-0.16691026015784857,-0.08272434960537854
1745333271.8492253,-1.012112,0.105225,-0.027084,-0.002013,-0.002257,0.004575,0.23531131248173048,-0.16691026015784857,-0.08272434960537854
1745333271.858894,-1.013881,0.104615,-0.025436999999999998,-0.0021349999999999997,-0.002623,0.004697,0.23531131248173048,-0.16691026015784857,-0.08272434960537854
1745333271.8687685,-1.013515,0.105591,-0.024949,-0.002257,-0.0023179999999999997,0.0042699999999999995,0.23531131248173048,-0.16691026015784857,-0.08272434960537854
1745333271.878339,-1.012173,0.105469,-0.024644,-0.002257,-0.00244,0.0042699999999999995,0.23969599532300498,-0.16983338205203158,-0.08433206664717918
1745333271.8879929,-1.013332,0.106018,-0.024095,-0.002196,-0.0026839999999999998,0.0042699999999999995,0.23969599532300498,-0.16983338205203158,-0.08433206664717918
1745333271.8978367,-1.013149,0.107116,-0.022082,-0.002074,-0.0026839999999999998,0.004575,0.23969599532300498,-0.16983338205203158,-0.08433206664717918
1745333271.9074047,-1.014674,0.107177,-0.024461,-0.00183,-0.002257,0.0048189999999999995,0.23969599532300498,-0.16983338205203158,-0.08433206664717918
1745333271.9170456,-1.011624,0.106567,-0.024644,-0.001952,-0.001769,0.00488,0.23969599532300498,-0.16983338205203158,-0.08433206664717918
1745333271.926743,-1.01443,0.106933,-0.026047,-0.002257,-0.002806,0.004331,0.23969599532300498,-0.16983338205203158,-0.08433206664717918
1745333271.9364529,-1.013515,0.10467599999999999,-0.026718,-0.002074,-0.001952,0.0046359999999999995,0.23969599532300498,-0.16983338205203158,-0.08433206664717918
1745333271.9460807,-1.017114,0.10492,-0.027632999999999998,-0.0021349999999999997,-0.002806,0.0042699999999999995,0.23969599532300498,-0.16983338205203158,-0.08433206664717918
1745333271.9557645,-1.01077,0.103883,-0.027023,-0.0021349999999999997,-0.0021349999999999997,0.0044529999999999995,0.23969599532300498,-0.16983338205203158,-0.08433206664717918
1745333271.9654963,-1.014735,0.106201,-0.023363,-0.002379,-0.002928,0.004331,0.23969599532300498,-0.16983338205203158,-0.08433206664717918
1745333271.9751272,-1.012722,0.105896,-0.024949,-0.002013,-0.001769,0.0046359999999999995,0.23969599532300498,-0.16983338205203158,-0.08433206664717918
1745333271.9848158,-1.015101,0.106018,-0.024339,-0.0021349999999999997,-0.002379,0.004392,0.23969599532300498,-0.16983338205203158,-0.08433206664717918
1745333271.9946077,-1.010038,0.106811,-0.023912,-0.002074,-0.0023179999999999997,0.0048189999999999995,0.23969599532300498,-0.16983338205203158,-0.08433206664717918
1745333272.004195,-1.013393,0.105896,-0.025376,-0.0018909999999999999,-0.00244,0.004514,0.23969599532300498,-0.16983338205203158,-0.08433206664717918
1745333272.0138588,-1.01382,0.106506,-0.025254,-0.002013,-0.0021349999999999997,0.0044529999999999995,0.23969599532300498,-0.16983338205203158,-0.08433206664717918
1745333272.0237536,-1.012905,0.10699399999999999,-0.025742,-0.0021349999999999997,-0.002806,0.004758,0.23969599532300498,-0.16983338205203158,-0.08433206664717918
1745333272.0332582,-1.014979,0.105835,-0.024399999999999998,-0.002074,-0.0026839999999999998,0.004514,0.23969599532300498,-0.16983338205203158,-0.08433206664717918
1745333272.0429149,-1.015101,0.104798,-0.024644,-0.002013,-0.002257,0.004758,0.23969599532300498,-0.16983338205203158,-0.08433206664717918
1745333272.0528057,-1.012722,0.105225,-0.026352,-0.001952,-0.002074,0.004331,0.23969599532300498,-0.16983338205203158,-0.08433206664717918
1745333272.0623271,-1.013332,0.106445,-0.027023,-0.0018909999999999999,-0.002562,0.004575,0.23969599532300498,-0.16983338205203158,-0.08433206664717918
1745333272.0719678,-1.011258,0.10675,-0.026168999999999998,-0.002196,-0.002074,0.004575,0.23969599532300498,-0.16983338205203158,-0.08433206664717918
1745333272.0816762,-1.014491,0.106506,-0.025925,-0.0021349999999999997,-0.002257,0.004575,0.2379421221864952,-0.16691026015784857,-0.0828705057000877
1745333272.0913782,-1.013149,0.105713,-0.024704999999999998,-0.002074,-0.0023179999999999997,0.004514,0.2379421221864952,-0.16691026015784857,-0.0828705057000877
1745333272.1010177,-1.013088,0.10607899999999999,-0.024888,-0.001952,-0.002745,0.004514,0.2379421221864952,-0.16691026015784857,-0.0828705057000877
1745333272.1106875,-1.014064,0.106628,-0.024644,-0.001952,-0.002562,0.004575,0.2379421221864952,-0.16691026015784857,-0.0828705057000877
1745333272.1204228,-1.014369,0.106262,-0.025071,-0.0021349999999999997,-0.002257,0.0044529999999999995,0.2379421221864952,-0.16691026015784857,-0.0828705057000877
1745333272.1300673,-1.014186,0.10638399999999999,-0.025986,-0.002074,-0.002257,0.004697,0.2379421221864952,-0.16691026015784857,-0.0828705057000877
1745333272.139732,-1.012966,0.106323,-0.024766,-0.0021349999999999997,-0.002623,0.004514,0.2379421221864952,-0.16691026015784857,-0.0828705057000877
1745333272.149522,-1.01504,0.10577399999999999,-0.024704999999999998,-0.002074,-0.0025009999999999998,0.0046359999999999995,0.2379421221864952,-0.16691026015784857,-0.0828705057000877
1745333272.159105,-1.014247,0.105347,-0.02623,-0.0018909999999999999,-0.0023179999999999997,0.004575,0.2379421221864952,-0.16691026015784857,-0.0828705057000877
1745333272.1687834,-1.014735,0.10668899999999999,-0.026718,-0.001952,-0.002257,0.004575,0.2379421221864952,-0.16691026015784857,-0.0828705057000877
1745333272.178702,-1.01382,0.10553,-0.025559,-0.002196,-0.0023179999999999997,0.0044529999999999995,0.2379421221864952,-0.16691026015784857,-0.0828705057000877
1745333272.1881664,-1.014491,0.105469,-0.024766,-0.002013,-0.0025009999999999998,0.004392,0.2379421221864952,-0.16691026015784857,-0.0828705057000877
1745333272.1978579,-1.013759,0.106323,-0.025131999999999998,-0.002074,-0.0021349999999999997,0.004758,0.2379421221864952,-0.16691026015784857,-0.0828705057000877
1745333272.207708,-1.012539,0.107116,-0.024827,-0.00183,-0.002257,0.004514,0.2379421221864952,-0.16691026015784857,-0.0828705057000877
1745333272.2172616,-1.013515,0.106933,-0.024704999999999998,-0.0021349999999999997,-0.0025009999999999998,0.004392,0.2379421221864952,-0.16691026015784857,-0.0828705057000877
1745333272.226888,-1.011929,0.10607899999999999,-0.024522,-0.001952,-0.002196,0.004575,0.2379421221864952,-0.16691026015784857,-0.0828705057000877
1745333272.2366154,-1.015406,0.106506,-0.024278,-0.002074,-0.0026839999999999998,0.004392,0.2379421221864952,-0.16691026015784857,-0.0828705057000877
1745333272.2463107,-1.012478,0.104005,-0.026718,-0.001769,-0.0017079999999999999,0.0050019999999999995,0.2379421221864952,-0.16691026015784857,-0.0828705057000877
1745333272.255929,-1.016504,0.106323,-0.025436999999999998,-0.0021349999999999997,-0.0030499999999999998,0.0040869999999999995,0.2379421221864952,-0.16691026015784857,-0.0828705057000877
1745333272.2655861,-1.00894,0.105164,-0.02562,-0.002196,-0.0015249999999999999,0.004697,0.2379421221864952,-0.16691026015784857,-0.0828705057000877
1745333272.275318,-1.017663,0.105896,-0.023302,-0.0023179999999999997,-0.002989,0.004514,0.2379421221864952,-0.16691026015784857,-0.0828705057000877
1745333272.2849607,-1.011868,0.105469,-0.026108,-0.0021349999999999997,-0.001586,0.004697,0.23648056123940367,-0.17275650394621456,-0.07717041800643087
1745333272.2946253,-1.014979,0.10492,-0.023241,-0.002257,-0.002623,0.004514,0.23648056123940367,-0.17275650394621456,-0.07717041800643087
1745333272.3044212,-1.011441,0.107482,-0.024461,-0.0021349999999999997,-0.00244,0.004392,0.23648056123940367,-0.17275650394621456,-0.07717041800643087
1745333272.3140101,-1.013393,0.106018,-0.023607,-0.0021349999999999997,-0.002074,0.004331,0.23648056123940367,-0.17275650394621456,-0.07717041800643087
1745333272.3236828,-1.014735,0.106628,-0.025986,-0.002013,-0.002379,0.0044529999999999995,0.23648056123940367,-0.17275650394621456,-0.07717041800643087
1745333272.333569,-1.013393,0.10553,-0.024827,-0.002257,-0.0021349999999999997,0.004697,0.23648056123940367,-0.17275650394621456,-0.07717041800643087
1745333272.3430672,-1.013698,0.10577399999999999,-0.02562,-0.002379,-0.0026839999999999998,0.0046359999999999995,0.23648056123940367,-0.17275650394621456,-0.07717041800643087
1745333272.3527465,-1.012783,0.106323,-0.025254,-0.002196,-0.0023179999999999997,0.0046359999999999995,0.23648056123940367,-0.17275650394621456,-0.07717041800643087
1745333272.3626208,-1.01504,0.106201,-0.024949,-0.002074,-0.00244,0.0046359999999999995,0.23648056123940367,-0.17275650394621456,-0.07717041800643087
1745333272.3721495,-1.012783,0.10577399999999999,-0.025986,-0.002074,-0.002013,0.004514,0.23648056123940367,-0.17275650394621456,-0.07717041800643087
1745333272.3817847,-1.013698,0.105408,-0.025131999999999998,-0.002196,-0.002562,0.004514,0.23648056123940367,-0.17275650394621456,-0.07717041800643087
1745333272.3918538,-1.012356,0.10607899999999999,-0.025071,-0.001952,-0.0021349999999999997,0.0042699999999999995,0.23648056123940367,-0.17275650394621456,-0.07717041800643087
1745333272.401719,-1.014064,0.106323,-0.024461,-0.001952,-0.0023179999999999997,0.00488,0.23648056123940367,-0.17275650394621456,-0.07717041800643087
1745333272.4109576,-1.013271,0.107238,-0.02501,-0.001769,-0.002013,0.004697,0.23648056123940367,-0.17275650394621456,-0.07717041800643087
1745333272.4205968,-1.016077,0.10614,-0.025863999999999998,-0.001952,-0.002257,0.0048189999999999995,0.23648056123940367,-0.17275650394621456,-0.07717041800643087
1745333272.430365,-1.012295,0.106445,-0.024034,-0.002196,-0.002196,0.0044529999999999995,0.23648056123940367,-0.17275650394621456,-0.07717041800643087
1745333272.439959,-1.012783,0.10614,-0.023424,-0.001952,-0.0023179999999999997,0.004575,0.23648056123940367,-0.17275650394621456,-0.07717041800643087
1745333272.4496365,-1.013576,0.105957,-0.023667999999999998,-0.002013,-0.002257,0.0046359999999999995,0.23648056123940367,-0.17275650394621456,-0.07717041800643087
1745333272.4594688,-1.014369,0.106323,-0.024399999999999998,-0.0021349999999999997,-0.0023179999999999997,0.004331,0.23648056123940367,-0.17275650394621456,-0.07717041800643087
1745333272.4690495,-1.01199,0.105286,-0.024156,-0.001952,-0.0021349999999999997,0.004575,0.23648056123940367,-0.17275650394621456,-0.07717041800643087
1745333272.4787045,-1.012478,0.106506,-0.026474,-0.0018909999999999999,-0.002013,0.0046359999999999995,0.23648056123940367,-0.17275650394621456,-0.07717041800643087
1745333272.4886754,-1.012356,0.106506,-0.026168999999999998,-0.002074,-0.002257,0.0046359999999999995,0.24378836597486114,-0.1683718211049401,-0.08506284712072494
1745333272.4981368,-1.013149,0.10498099999999999,-0.026352,-0.002013,-0.002379,0.004392,0.24378836597486114,-0.1683718211049401,-0.08506284712072494
1745333272.5077646,-1.013454,0.104554,-0.025315,-0.002013,-0.002379,0.004514,0.24378836597486114,-0.1683718211049401,-0.08506284712072494
1745333272.5175238,-1.01382,0.106018,-0.024644,-0.001769,-0.002257,0.0046359999999999995,0.24378836597486114,-0.1683718211049401,-0.08506284712072494
1745333272.5271826,-1.013576,0.104554,-0.02501,-0.002013,-0.00244,0.0046359999999999995,0.24378836597486114,-0.1683718211049401,-0.08506284712072494
1745333272.5368354,-1.013088,0.105835,-0.024583,-0.0021349999999999997,-0.0025009999999999998,0.004331,0.24378836597486114,-0.1683718211049401,-0.08506284712072494
1745333272.546509,-1.01504,0.107421,-0.025559,-0.002074,-0.0023179999999999997,0.0042699999999999995,0.24378836597486114,-0.1683718211049401,-0.08506284712072494
1745333272.556233,-1.012112,0.10614,-0.025376,-0.001952,-0.002562,0.0042699999999999995,0.24378836597486114,-0.1683718211049401,-0.08506284712072494
1745333272.565863,-1.014247,0.106567,-0.025254,-0.00183,-0.002379,0.0046359999999999995,0.24378836597486114,-0.1683718211049401,-0.08506284712072494
1745333272.5755365,-1.014369,0.105408,-0.026657,-0.002074,-0.002074,0.004331,0.24378836597486114,-0.1683718211049401,-0.08506284712072494
1745333272.5853088,-1.011929,0.10467599999999999,-0.025742,-0.0023179999999999997,-0.002074,0.004514,0.24378836597486114,-0.1683718211049401,-0.08506284712072494
1745333272.5949097,-1.01504,0.104798,-0.027572,-0.001952,-0.002562,0.0044529999999999995,0.24378836597486114,-0.1683718211049401,-0.08506284712072494
1745333272.6045885,-1.011929,0.105652,-0.025559,-0.00183,-0.002257,0.004514,0.24378836597486114,-0.1683718211049401,-0.08506284712072494
1745333272.6144342,-1.016199,0.106567,-0.025863999999999998,-0.001769,-0.002562,0.0046359999999999995,0.24378836597486114,-0.1683718211049401,-0.08506284712072494
1745333272.6239922,-1.013393,0.10577399999999999,-0.024827,-0.0021349999999999997,-0.0025009999999999998,0.004514,0.24378836597486114,-0.1683718211049401,-0.08506284712072494
1745333272.6337047,-1.013393,0.10760399999999999,-0.023363,-0.002074,-0.00244,0.0046359999999999995,0.24378836597486114,-0.1683718211049401,-0.08506284712072494
1745333272.6436896,-1.015528,0.106323,-0.024888,-0.0021349999999999997,-0.0025009999999999998,0.004575,0.24378836597486114,-0.1683718211049401,-0.08506284712072494
1745333272.653077,-1.013332,0.106445,-0.026474,-0.00183,-0.002074,0.004758,0.24378836597486114,-0.1683718211049401,-0.08506284712072494
1745333272.6627307,-1.014186,0.106445,-0.024461,-0.0021349999999999997,-0.0026839999999999998,0.0046359999999999995,0.24378836597486114,-0.1683718211049401,-0.08506284712072494
1745333272.6724827,-1.01321,0.10614,-0.026168999999999998,-0.00183,-0.001769,0.004758,0.24378836597486114,-0.1683718211049401,-0.08506284712072494
1745333272.68215,-1.014735,0.106506,-0.026291,-0.002074,-0.002257,0.004758,0.24378836597486114,-0.1683718211049401,-0.08506284712072494
1745333272.6917813,-1.011136,0.104554,-0.025193,-0.001952,-0.0023179999999999997,0.004758,0.23764980999707688,-0.17217187956737795,-0.07848582285881321
1745333272.7014925,-1.015284,0.106567,-0.024949,-0.001952,-0.002379,0.004514,0.23764980999707688,-0.17217187956737795,-0.07848582285881321
1745333272.7111967,-1.012051,0.106628,-0.025131999999999998,-0.0021349999999999997,-0.002196,0.004514,0.23764980999707688,-0.17217187956737795,-0.07848582285881321
1745333272.7208323,-1.014064,0.10614,-0.025681,-0.002196,-0.002257,0.004758,0.23764980999707688,-0.17217187956737795,-0.07848582285881321
1745333272.7304978,-1.013759,0.105713,-0.02562,-0.0021349999999999997,-0.002257,0.004514,0.23764980999707688,-0.17217187956737795,-0.07848582285881321
1745333272.7402725,-1.014796,0.107055,-0.025254,-0.0021349999999999997,-0.002257,0.0044529999999999995,0.23764980999707688,-0.17217187956737795,-0.07848582285881321
1745333272.749874,-1.012783,0.10614,-0.024522,-0.002379,-0.0021349999999999997,0.004758,0.23764980999707688,-0.17217187956737795,-0.07848582285881321
1745333272.7595448,-1.012234,0.10699399999999999,-0.025254,-0.002074,-0.00244,0.004697,0.23764980999707688,-0.17217187956737795,-0.07848582285881321
1745333272.769363,-1.012722,0.105896,-0.024399999999999998,-0.001952,-0.00244,0.0044529999999999995,0.23764980999707688,-0.17217187956737795,-0.07848582285881321
1745333272.7789357,-1.01443,0.10668899999999999,-0.023729,-0.0021349999999999997,-0.002562,0.0044529999999999995,0.23764980999707688,-0.17217187956737795,-0.07848582285881321
1745333272.7886157,-1.013881,0.10553,-0.024461,-0.0021349999999999997,-0.002196,0.004392,0.23764980999707688,-0.17217187956737795,-0.07848582285881321
1745333272.7985168,-1.012905,0.105469,-0.024704999999999998,-0.001952,-0.002013,0.004758,0.23764980999707688,-0.17217187956737795,-0.07848582285881321
1745333272.8079982,-1.013454,0.104249,-0.025925,-0.002074,-0.002074,0.004392,0.23764980999707688,-0.17217187956737795,-0.07848582285881321
1745333272.8176637,-1.014186,0.104859,-0.025071,-0.0023179999999999997,-0.0023179999999999997,0.004575,0.23764980999707688,-0.17217187956737795,-0.07848582285881321
1745333272.8274367,-1.012966,0.105652,-0.026595999999999998,-0.002074,-0.002379,0.004331,0.23764980999707688,-0.17217187956737795,-0.07848582285881321
1745333272.8370764,-1.014125,0.106262,-0.025436999999999998,-0.002196,-0.00244,0.0044529999999999995,0.23764980999707688,-0.17217187956737795,-0.07848582285881321
1745333272.8467069,-1.014308,0.10607899999999999,-0.024644,-0.001952,-0.002379,0.0044529999999999995,0.23764980999707688,-0.17217187956737795,-0.07848582285881321
1745333272.856436,-1.012905,0.10577399999999999,-0.024095,-0.0021349999999999997,-0.0025009999999999998,0.004331,0.23764980999707688,-0.17217187956737795,-0.07848582285881321
1745333272.866143,-1.013332,0.106018,-0.024095,-0.002257,-0.0025009999999999998,0.0046359999999999995,0.23764980999707688,-0.17217187956737795,-0.07848582285881321
1745333272.8757598,-1.013088,0.106262,-0.023363,-0.001769,-0.0025009999999999998,0.00488,0.23764980999707688,-0.17217187956737795,-0.07848582285881321
1745333272.8854396,-1.0126,0.10638399999999999,-0.024461,-0.001769,-0.002379,0.004575,0.23764980999707688,-0.17217187956737795,-0.07848582285881321
1745333272.8952005,-1.017358,0.10668899999999999,-0.023241,-0.002074,-0.002562,0.004697,0.23823443437591346,-0.1631102016954107,-0.06752411575562701
1745333272.9048126,-1.009916,0.10498099999999999,-0.025742,-0.001769,-0.001769,0.0046359999999999995,0.23823443437591346,-0.1631102016954107,-0.06752411575562701
1745333272.9144788,-1.014369,0.106201,-0.025131999999999998,-0.002013,-0.002806,0.004209,0.23823443437591346,-0.1631102016954107,-0.06752411575562701
1745333272.9243,-1.00894,0.104249,-0.027389,-0.002074,-0.0017079999999999999,0.004941,0.23823443437591346,-0.1631102016954107,-0.06752411575562701
1745333272.9338622,-1.020408,0.105835,-0.02501,-0.002074,-0.003111,0.004331,0.23823443437591346,-0.1631102016954107,-0.06752411575562701
1745333272.9435282,-1.007903,0.105286,-0.026900999999999998,-0.001952,-0.001403,0.0048189999999999995,0.23823443437591346,-0.1631102016954107,-0.06752411575562701
1745333272.9534526,-1.017419,0.105286,-0.022203999999999998,-0.0021349999999999997,-0.003721,0.0037819999999999998,0.23823443437591346,-0.1631102016954107,-0.06752411575562701
1745333272.9629245,-1.009733,0.105652,-0.025376,-0.001952,-0.0015249999999999999,0.0048189999999999995,0.23823443437591346,-0.1631102016954107,-0.06752411575562701
1745333272.9726133,-1.017663,0.105713,-0.023363,-0.0025009999999999998,-0.002745,0.0044529999999999995,0.23823443437591346,-0.1631102016954107,-0.06752411575562701
1745333272.9823463,-1.009306,0.10638399999999999,-0.025681,-0.002196,-0.002196,0.0046359999999999995,0.23823443437591346,-0.1631102016954107,-0.06752411575562701
1745333272.992001,-1.015345,0.105286,-0.024339,-0.002074,-0.002562,0.004758,0.23823443437591346,-0.1631102016954107,-0.06752411575562701
1745333273.0016415,-1.011868,0.10699399999999999,-0.027389,-0.0021349999999999997,-0.0021349999999999997,0.004514,0.23823443437591346,-0.1631102016954107,-0.06752411575562701
1745333273.011308,-1.014064,0.105347,-0.024888,-0.002074,-0.0021349999999999997,0.0044529999999999995,0.23823443437591346,-0.1631102016954107,-0.06752411575562701
1745333273.0211003,-1.012173,0.10553,-0.025498,-0.002379,-0.0021349999999999997,0.004392,0.23823443437591346,-0.1631102016954107,-0.06752411575562701
1745333273.0306888,-1.013515,0.105103,-0.023851,-0.00244,-0.00244,0.004697,0.23823443437591346,-0.1631102016954107,-0.06752411575562701
1745333273.0403655,-1.015589,0.105469,-0.025986,-0.002257,-0.002013,0.004758,0.23823443437591346,-0.1631102016954107,-0.06752411575562701
1745333273.050209,-1.011319,0.10614,-0.026474,-0.0021349999999999997,-0.002562,0.0048189999999999995,0.23823443437591346,-0.1631102016954107,-0.06752411575562701
1745333273.05975,-1.014369,0.10638399999999999,-0.02379,-0.002013,-0.00244,0.004575,0.23823443437591346,-0.1631102016954107,-0.06752411575562701
1745333273.0694578,-1.013088,0.106323,-0.023667999999999998,-0.00183,-0.00244,0.004697,0.23823443437591346,-0.1631102016954107,-0.06752411575562701
1745333273.0793967,-1.012173,0.10498099999999999,-0.025315,-0.00183,-0.00244,0.0046359999999999995,0.23823443437591346,-0.1631102016954107,-0.06752411575562701
1745333273.088823,-1.01382,0.105408,-0.025254,-0.002074,-0.0025009999999999998,0.0044529999999999995,0.23823443437591346,-0.1631102016954107,-0.06752411575562701
1745333273.0984755,-1.013515,0.105713,-0.024583,-0.00183,-0.0025009999999999998,0.004392,0.24524992692195263,-0.1625255773165741,-0.0828705057000877
1745333273.1082368,-1.013088,0.105713,-0.024034,-0.0018909999999999999,-0.0023179999999999997,0.0044529999999999995,0.24524992692195263,-0.1625255773165741,-0.0828705057000877
1745333273.1178992,-1.012417,0.105957,-0.024339,-0.0021349999999999997,-0.002074,0.004575,0.24524992692195263,-0.1625255773165741,-0.0828705057000877
1745333273.1275275,-1.015345,0.10668899999999999,-0.024583,-0.002013,-0.002257,0.004392,0.24524992692195263,-0.1625255773165741,-0.0828705057000877
1745333273.1372125,-1.012783,0.10553,-0.024399999999999998,-0.00244,-0.002196,0.004392,0.24524992692195263,-0.1625255773165741,-0.0828705057000877
1745333273.1469474,-1.013637,0.105835,-0.025376,-0.0023179999999999997,-0.002196,0.004514,0.24524992692195263,-0.1625255773165741,-0.0828705057000877
1745333273.1565814,-1.013637,0.10607899999999999,-0.025376,-0.0023179999999999997,-0.002257,0.00488,0.24524992692195263,-0.1625255773165741,-0.0828705057000877
1745333273.1662476,-1.013515,0.105957,-0.023912,-0.002196,-0.002257,0.0046359999999999995,0.24524992692195263,-0.1625255773165741,-0.0828705057000877
1745333273.1759992,-1.012661,0.105042,-0.025376,-0.002074,-0.0023179999999999997,0.004575,0.24524992692195263,-0.1625255773165741,-0.0828705057000877
1745333273.185611,-1.013698,0.104615,-0.024399999999999998,-0.002257,-0.0023179999999999997,0.004758,0.24524992692195263,-0.1625255773165741,-0.0828705057000877
1745333273.195277,-1.014125,0.105713,-0.025131999999999998,-0.002379,-0.0023179999999999997,0.004575,0.24524992692195263,-0.1625255773165741,-0.0828705057000877
1745333273.205095,-1.010526,0.105835,-0.024522,-0.002196,-0.0021349999999999997,0.004697,0.24524992692195263,-0.1625255773165741,-0.0828705057000877
1745333273.2146752,-1.013027,0.106628,-0.023972999999999998,-0.002013,-0.002562,0.0044529999999999995,0.24524992692195263,-0.1625255773165741,-0.0828705057000877
1745333273.2243524,-1.013515,0.106018,-0.024949,-0.002074,-0.002196,0.004514,0.24524992692195263,-0.1625255773165741,-0.0828705057000877
1745333273.234301,-1.014918,0.106506,-0.024583,-0.0021349999999999997,-0.0021349999999999997,0.004575,0.24524992692195263,-0.1625255773165741,-0.0828705057000877
1745333273.2437396,-1.012722,0.106262,-0.025193,-0.00183,-0.0018909999999999999,0.004575,0.24524992692195263,-0.1625255773165741,-0.0828705057000877
1745333273.2534053,-1.012234,0.105896,-0.02562,-0.0017079999999999999,-0.002257,0.004575,0.24524992692195263,-0.1625255773165741,-0.0828705057000877
1745333273.2631447,-1.014552,0.106262,-0.026291,-0.002013,-0.002379,0.004758,0.24524992692195263,-0.1625255773165741,-0.0828705057000877
1745333273.2728133,-1.015467,0.10607899999999999,-0.025498,-0.00183,-0.002196,0.004697,0.24524992692195263,-0.1625255773165741,-0.0828705057000877
1745333273.282462,-1.011868,0.106811,-0.026413,-0.001952,-0.002196,0.004697,0.24524992692195263,-0.1625255773165741,-0.0828705057000877
1745333273.292144,-1.013576,0.106506,-0.025131999999999998,-0.0023179999999999997,-0.00244,0.004514,0.24524992692195263,-0.1625255773165741,-0.0828705057000877
1745333273.3018634,-1.014003,0.10498099999999999,-0.025803,-0.0021349999999999997,-0.002257,0.004575,0.24524992692195263,-0.1625255773165741,-0.0828705057000877
1745333273.3114939,-1.014247,0.10668899999999999,-0.024766,-0.002196,-0.001952,0.004575,0.23911137094416837,-0.1616486407483192,-0.08593978368897984
1745333273.3211737,-1.012966,0.107055,-0.024034,-0.002013,-0.00244,0.004514,0.23911137094416837,-0.1616486407483192,-0.08593978368897984
1745333273.330966,-1.012173,0.10638399999999999,-0.024217,-0.002074,-0.002562,0.004575,0.23911137094416837,-0.1616486407483192,-0.08593978368897984
1745333273.3405643,-1.014735,0.10638399999999999,-0.025254,-0.0021349999999999997,-0.002379,0.004575,0.23911137094416837,-0.1616486407483192,-0.08593978368897984
1745333273.3502305,-1.013149,0.10668899999999999,-0.026352,-0.0021349999999999997,-0.0021349999999999997,0.004575,0.23911137094416837,-0.1616486407483192,-0.08593978368897984
1745333273.3600376,-1.013332,0.106262,-0.026352,-0.00183,-0.002257,0.0048189999999999995,0.23911137094416837,-0.1616486407483192,-0.08593978368897984
1745333273.3696208,-1.013942,0.105591,-0.025986,-0.002013,-0.002074,0.004575,0.23911137094416837,-0.1616486407483192,-0.08593978368897984
1745333273.3792903,-1.012234,0.105469,-0.023912,-0.002196,-0.002379,0.0042699999999999995,0.23911137094416837,-0.1616486407483192,-0.08593978368897984
1745333273.389617,-1.012112,0.106018,-0.024583,-0.002196,-0.002196,0.004514,0.23911137094416837,-0.1616486407483192,-0.08593978368897984
1745333273.3987536,-1.014247,0.106201,-0.026535,-0.0021349999999999997,-0.0023179999999999997,0.0046359999999999995,0.23911137094416837,-0.1616486407483192,-0.08593978368897984
1745333273.4084437,-1.013149,0.106018,-0.025376,-0.002257,-0.0021349999999999997,0.0044529999999999995,0.23911137094416837,-0.1616486407483192,-0.08593978368897984
1745333273.4181814,-1.014003,0.105835,-0.026168999999999998,-0.002257,-0.0023179999999999997,0.0046359999999999995,0.23911137094416837,-0.1616486407483192,-0.08593978368897984
1745333273.427882,-1.013088,0.106628,-0.02501,-0.002013,-0.002196,0.004392,0.23911137094416837,-0.1616486407483192,-0.08593978368897984
1745333273.4375348,-1.012905,0.106567,-0.024644,-0.0021349999999999997,-0.002196,0.004697,0.23911137094416837,-0.1616486407483192,-0.08593978368897984
1745333273.4472022,-1.013088,0.10675,-0.024827,-0.002257,-0.002379,0.004697,0.23911137094416837,-0.1616486407483192,-0.08593978368897984
1745333273.4569352,-1.013881,0.10614,-0.024766,-0.0021349999999999997,-0.00244,0.004148,0.23911137094416837,-0.1616486407483192,-0.08593978368897984
1745333273.4665992,-1.012966,0.10638399999999999,-0.024339,-0.0018909999999999999,-0.001952,0.004331,0.23911137094416837,-0.1616486407483192,-0.08593978368897984
1745333273.4762502,-1.013576,0.106018,-0.024522,-0.001952,-0.002196,0.0044529999999999995,0.23911137094416837,-0.1616486407483192,-0.08593978368897984
1745333273.4860709,-1.012783,0.105408,-0.025131999999999998,-0.001952,-0.002196,0.004697,0.23911137094416837,-0.1616486407483192,-0.08593978368897984
1745333273.4957209,-1.013637,0.105896,-0.024949,-0.002196,-0.002745,0.0044529999999999995,0.23911137094416837,-0.1616486407483192,-0.08593978368897984
1745333273.5053632,-1.013027,0.10668899999999999,-0.025681,-0.002013,-0.0021349999999999997,0.0048189999999999995,0.23911137094416837,-0.1616486407483192,-0.08593978368897984
1745333273.5159664,-1.016077,0.106323,-0.02562,-0.002196,-0.002196,0.004575,0.2358959368605671,-0.18006430868167203,-0.0811166325635779
1745333273.524739,-1.011441,0.107055,-0.025254,-0.002196,-0.002196,0.004575,0.2358959368605671,-0.18006430868167203,-0.0811166325635779
1745333273.5344036,-1.015894,0.105896,-0.025131999999999998,-0.002074,-0.001952,0.0048189999999999995,0.2358959368605671,-0.18006430868167203,-0.0811166325635779
1745333273.5442703,-1.012905,0.106567,-0.025254,-0.0018909999999999999,-0.0023179999999999997,0.004575,0.2358959368605671,-0.18006430868167203,-0.0811166325635779
1745333273.5538204,-1.014125,0.105286,-0.025131999999999998,-0.002074,-0.0023179999999999997,0.004575,0.2358959368605671,-0.18006430868167203,-0.0811166325635779
1745333273.5634522,-1.011746,0.10553,-0.024278,-0.0021349999999999997,-0.0023179999999999997,0.004392,0.2358959368605671,-0.18006430868167203,-0.0811166325635779
1745333273.5731566,-1.01382,0.105835,-0.025315,-0.002074,-0.002379,0.0044529999999999995,0.2358959368605671,-0.18006430868167203,-0.0811166325635779
1745333273.5828707,-1.013576,0.105835,-0.024827,-0.002013,-0.002257,0.0042699999999999995,0.2358959368605671,-0.18006430868167203,-0.0811166325635779
1745333273.5925207,-1.014308,0.106628,-0.025131999999999998,-0.002196,-0.002562,0.0044529999999999995,0.2358959368605671,-0.18006430868167203,-0.0811166325635779
1745333273.6021771,-1.012295,0.107055,-0.023546,-0.002196,-0.002562,0.00488,0.2358959368605671,-0.18006430868167203,-0.0811166325635779
1745333273.6119306,-1.014247,0.10675,-0.024156,-0.002196,-0.002745,0.004697,0.2358959368605671,-0.18006430868167203,-0.0811166325635779
1745333273.6215522,-1.012417,0.105896,-0.024888,-0.001952,-0.0021349999999999997,0.004758,0.2358959368605671,-0.18006430868167203,-0.0811166325635779
1745333273.6312308,-1.014247,0.106506,-0.025071,-0.0018909999999999999,-0.002562,0.004697,0.2358959368605671,-0.18006430868167203,-0.0811166325635779
1745333273.6410222,-1.012417,0.106445,-0.025436999999999998,-0.001769,-0.002379,0.004514,0.2358959368605671,-0.18006430868167203,-0.0811166325635779
1745333273.650602,-1.014186,0.106323,-0.025681,-0.001769,-0.0021349999999999997,0.0046359999999999995,0.2358959368605671,-0.18006430868167203,-0.0811166325635779
1745333273.660272,-1.013088,0.105286,-0.026657,-0.002013,-0.002379,0.004758,0.2358959368605671,-0.18006430868167203,-0.0811166325635779
1745333273.6701915,-1.013393,0.104493,-0.026168999999999998,-0.002196,-0.0023179999999999997,0.004697,0.2358959368605671,-0.18006430868167203,-0.0811166325635779
1745333273.6796544,-1.014247,0.105408,-0.025925,-0.002257,-0.002379,0.004575,0.2358959368605671,-0.18006430868167203,-0.0811166325635779
1745333273.6893466,-1.01321,0.105652,-0.023667999999999998,-0.0021349999999999997,-0.002562,0.004575,0.2358959368605671,-0.18006430868167203,-0.0811166325635779
1745333273.6991801,-1.014552,0.106323,-0.024644,-0.002074,-0.00244,0.0046359999999999995,0.2358959368605671,-0.18006430868167203,-0.0811166325635779
1745333273.7087398,-1.014186,0.106933,-0.024278,-0.002196,-0.0023179999999999997,0.0044529999999999995,0.2358959368605671,-0.18006430868167203,-0.0811166325635779
1745333273.7183766,-1.014003,0.106262,-0.023972999999999998,-0.001952,-0.0023179999999999997,0.004697,0.24466530254311605,-0.16895644548377667,-0.07614732534346683
1745333273.728071,-1.012966,0.106445,-0.022997,-0.001952,-0.00244,0.004697,0.24466530254311605,-0.16895644548377667,-0.07614732534346683
1745333273.7377882,-1.013454,0.106506,-0.024399999999999998,-0.001952,-0.0021349999999999997,0.004758,0.24466530254311605,-0.16895644548377667,-0.07614732534346683
1745333273.747417,-1.015894,0.107421,-0.023302,-0.00183,-0.0023179999999999997,0.004575,0.24466530254311605,-0.16895644548377667,-0.07614732534346683
1745333273.7571068,-1.010953,0.104859,-0.02928,-0.002074,-0.00183,0.004392,0.24466530254311605,-0.16895644548377667,-0.07614732534346683
1745333273.7668376,-1.015101,0.10607899999999999,-0.024461,-0.00244,-0.0028669999999999998,0.004514,0.24466530254311605,-0.16895644548377667,-0.07614732534346683
1745333273.7764664,-1.011014,0.10498099999999999,-0.029828999999999998,-0.002013,-0.001769,0.00488,0.24466530254311605,-0.16895644548377667,-0.07614732534346683
1745333273.786161,-1.013454,0.105591,-0.02257,-0.001769,-0.0026839999999999998,0.004331,0.24466530254311605,-0.16895644548377667,-0.07614732534346683
1745333273.7959695,-1.011502,0.10498099999999999,-0.029646,-0.00183,-0.0018909999999999999,0.00488,0.24466530254311605,-0.16895644548377667,-0.07614732534346683
1745333273.8055284,-1.016626,0.10498099999999999,-0.023912,-0.002379,-0.003355,0.004209,0.24466530254311605,-0.16895644548377667,-0.07614732534346683
1745333273.815192,-1.011502,0.106506,-0.025071,-0.002013,-0.0017079999999999999,0.004758,0.24466530254311605,-0.16895644548377667,-0.07614732534346683
1745333273.8251026,-1.016931,0.105286,-0.022631,-0.0021349999999999997,-0.002928,0.004392,0.24466530254311605,-0.16895644548377667,-0.07614732534346683
1745333273.8345854,-1.009001,0.108092,-0.024461,-0.00183,-0.0017079999999999999,0.004697,0.24466530254311605,-0.16895644548377667,-0.07614732534346683
1745333273.8442492,-1.017968,0.107177,-0.022509,-0.002074,-0.0028669999999999998,0.0044529999999999995,0.24466530254311605,-0.16895644548377667,-0.07614732534346683
1745333273.8541477,-1.010648,0.107177,-0.025376,-0.0017079999999999999,-0.001647,0.004697,0.24466530254311605,-0.16895644548377667,-0.07614732534346683
1745333273.8636572,-1.016077,0.106018,-0.024704999999999998,-0.00183,-0.002623,0.0046359999999999995,0.24466530254311605,-0.16895644548377667,-0.07614732534346683
1745333273.8733041,-1.011075,0.105835,-0.026779,-0.002013,-0.0021349999999999997,0.004514,0.24466530254311605,-0.16895644548377667,-0.07614732534346683
1745333273.8830197,-1.017785,0.10553,-0.027145,-0.002257,-0.0023179999999999997,0.0046359999999999995,0.24466530254311605,-0.16895644548377667,-0.07614732534346683
1745333273.8927138,-1.012478,0.104493,-0.025803,-0.002074,-0.0021349999999999997,0.004514,0.24466530254311605,-0.16895644548377667,-0.07614732534346683
1745333273.9023478,-1.012356,0.105225,-0.026291,-0.002074,-0.0023179999999999997,0.004758,0.24466530254311605,-0.16895644548377667,-0.07614732534346683
1745333273.9120202,-1.015284,0.105713,-0.024583,-0.002074,-0.0028669999999999998,0.004697,0.24466530254311605,-0.16895644548377667,-0.07614732534346683
1745333273.9217587,-1.013759,0.10577399999999999,-0.025254,-0.002013,-0.0021349999999999997,0.004697,0.24115755627009647,-0.17363344051446947,-0.07717041800643087
1745333273.9313872,-1.014674,0.105164,-0.025254,-0.0018909999999999999,-0.002196,0.00488,0.24115755627009647,-0.17363344051446947,-0.07717041800643087
1745333273.941067,-1.011319,0.106201,-0.025498,-0.0018909999999999999,-0.002257,0.004331,0.24115755627009647,-0.17363344051446947,-0.07717041800643087
1745333273.9508624,-1.015223,0.10699399999999999,-0.025376,-0.0023179999999999997,-0.0025009999999999998,0.0046359999999999995,0.24115755627009647,-0.17363344051446947,-0.07717041800643087
1745333273.960443,-1.013149,0.107055,-0.025986,-0.002074,-0.002196,0.0044529999999999995,0.24115755627009647,-0.17363344051446947,-0.07717041800643087
1745333273.9701343,-1.013149,0.106567,-0.024034,-0.002013,-0.002257,0.0046359999999999995,0.24115755627009647,-0.17363344051446947,-0.07717041800643087
1745333273.980074,-1.015223,0.106201,-0.025254,-0.002196,-0.002379,0.004697,0.24115755627009647,-0.17363344051446947,-0.07717041800643087
1745333273.9895163,-1.016748,0.10553,-0.025986,-0.002196,-0.002623,0.004514,0.24115755627009647,-0.17363344051446947,-0.07717041800643087
1745333273.999178,-1.011929,0.104737,-0.026047,-0.002074,-0.0021349999999999997,0.004514,0.24115755627009647,-0.17363344051446947,-0.07717041800643087
1745333274.0090518,-1.012417,0.106201,-0.025498,-0.0021349999999999997,-0.002745,0.004514,0.24115755627009647,-0.17363344051446947,-0.07717041800643087
1745333274.0185957,-1.013576,0.105469,-0.026108,-0.0021349999999999997,-0.002379,0.0048189999999999995,0.24115755627009647,-0.17363344051446947,-0.07717041800643087
1745333274.0282266,-1.014186,0.105652,-0.026047,-0.0018909999999999999,-0.002257,0.004575,0.24115755627009647,-0.17363344051446947,-0.07717041800643087
1745333274.0379333,-1.012356,0.106323,-0.025803,-0.002074,-0.0023179999999999997,0.0048189999999999995,0.24115755627009647,-0.17363344051446947,-0.07717041800643087
1745333274.047643,-1.012539,0.105713,-0.025193,-0.002379,-0.0026839999999999998,0.004209,0.24115755627009647,-0.17363344051446947,-0.07717041800643087
1745333274.05728,-1.013576,0.105347,-0.023729,-0.002257,-0.002257,0.004392,0.24115755627009647,-0.17363344051446947,-0.07717041800643087
1745333274.0669494,-1.013393,0.106628,-0.025071,-0.0018909999999999999,-0.002257,0.004575,0.24115755627009647,-0.17363344051446947,-0.07717041800643087
1745333274.0766845,-1.012295,0.107543,-0.023058,-0.0018909999999999999,-0.002257,0.0046359999999999995,0.24115755627009647,-0.17363344051446947,-0.07717041800643087
1745333274.086327,-1.012844,0.10577399999999999,-0.024522,-0.001769,-0.002379,0.0046359999999999995,0.24115755627009647,-0.17363344051446947,-0.07717041800643087
1745333274.0959866,-1.016626,0.10760399999999999,-0.02745,-0.00183,-0.001464,0.004697,0.24115755627009647,-0.17363344051446947,-0.07717041800643087
1745333274.1057868,-1.016016,0.106567,-0.025986,-0.002196,-0.002928,0.004514,0.24115755627009647,-0.17363344051446947,-0.07717041800643087
1745333274.1153672,-1.009123,0.104737,-0.027145,-0.002074,-0.0015249999999999999,0.005307,0.24115755627009647,-0.17363344051446947,-0.07717041800643087
1745333274.1250498,-1.018761,0.10498099999999999,-0.025254,-0.001952,-0.0032329999999999998,0.004331,0.23121894182987432,-0.1645717626425022,-0.07643963753288512
1745333274.1349447,-1.006134,0.104493,-0.02928,-0.00183,-0.0011589999999999999,0.004697,0.23121894182987432,-0.1645717626425022,-0.07643963753288512
1745333274.1444414,-1.020225,0.10492,-0.021777,-0.0021349999999999997,-0.003843,0.004148,0.23121894182987432,-0.1645717626425022,-0.07643963753288512
1745333274.1541317,-1.00955,0.10492,-0.02684,-0.0021349999999999997,-0.0015249999999999999,0.005063,0.23121894182987432,-0.1645717626425022,-0.07643963753288512
1745333274.1639707,-1.017541,0.105652,-0.022387,-0.0021349999999999997,-0.002623,0.004697,0.23121894182987432,-0.1645717626425022,-0.07643963753288512
1745333274.173518,-1.008818,0.10699399999999999,-0.02501,-0.002013,-0.001952,0.004392,0.23121894182987432,-0.1645717626425022,-0.07643963753288512
1745333274.1831484,-1.015467,0.105957,-0.025254,-0.0018909999999999999,-0.0025009999999999998,0.004758,0.23121894182987432,-0.1645717626425022,-0.07643963753288512
1745333274.192868,-1.012478,0.107543,-0.024156,-0.0018909999999999999,-0.0023179999999999997,0.0046359999999999995,0.23121894182987432,-0.1645717626425022,-0.07643963753288512
1745333274.2025661,-1.012783,0.10638399999999999,-0.024704999999999998,-0.002013,-0.002074,0.004575,0.23121894182987432,-0.1645717626425022,-0.07643963753288512
1745333274.2121933,-1.013698,0.106018,-0.025681,-0.002196,-0.0025009999999999998,0.004514,0.23121894182987432,-0.1645717626425022,-0.07643963753288512
1745333274.221871,-1.013271,0.105591,-0.024766,-0.002196,-0.00244,0.0044529999999999995,0.23121894182987432,-0.1645717626425022,-0.07643963753288512
1745333274.2316082,-1.014125,0.106506,-0.023485,-0.00183,-0.0025009999999999998,0.004514,0.23121894182987432,-0.1645717626425022,-0.07643963753288512
1745333274.241259,-1.010648,0.104554,-0.025803,-0.0017079999999999999,-0.0017079999999999999,0.004697,0.23121894182987432,-0.1645717626425022,-0.07643963753288512
1745333274.2509255,-1.015223,0.105408,-0.025863999999999998,-0.0018909999999999999,-0.00244,0.004575,0.23121894182987432,-0.1645717626425022,-0.07643963753288512
1745333274.2607067,-1.011929,0.105713,-0.025925,-0.0017079999999999999,-0.002379,0.004331,0.23121894182987432,-0.1645717626425022,-0.07643963753288512
1745333274.270294,-1.015223,0.10553,-0.026413,-0.001769,-0.002379,0.004575,0.23121894182987432,-0.1645717626425022,-0.07643963753288512
1745333274.2799578,-1.01321,0.10607899999999999,-0.026657,-0.002074,-0.0021349999999999997,0.0048189999999999995,0.23121894182987432,-0.1645717626425022,-0.07643963753288512
1745333274.2898598,-1.014003,0.105591,-0.026108,-0.0021349999999999997,-0.0025009999999999998,0.004575,0.23121894182987432,-0.1645717626425022,-0.07643963753288512
1745333274.2993426,-1.013393,0.105286,-0.023241,-0.001952,-0.0023179999999999997,0.00488,0.23121894182987432,-0.1645717626425022,-0.07643963753288512
1745333274.309019,-1.014064,0.10638399999999999,-0.021411,-0.002013,-0.002623,0.004514,0.23121894182987432,-0.1645717626425022,-0.07643963753288512
1745333274.3189087,-1.012356,0.107482,-0.023485,-0.0018909999999999999,-0.002013,0.004575,0.23121894182987432,-0.1645717626425022,-0.07643963753288512
1745333274.329622,-1.014857,0.105896,-0.023424,-0.001952,-0.002379,0.0046359999999999995,0.23648056123940367,-0.16544869921075708,-0.07980122771119556
1745333274.340643,-1.012234,0.105835,-0.024278,-0.0021349999999999997,-0.002196,0.0046359999999999995,0.23648056123940367,-0.16544869921075708,-0.07980122771119556
1745333274.3510997,-1.01199,0.106323,-0.026108,-0.002074,-0.002257,0.0044529999999999995,0.23648056123940367,-0.16544869921075708,-0.07980122771119556
1745333274.360992,-1.013515,0.105469,-0.027694,-0.002013,-0.002074,0.004941,0.23648056123940367,-0.16544869921075708,-0.07980122771119556
1745333274.3673446,-1.014247,0.104615,-0.027327999999999998,-0.002074,-0.002196,0.004697,0.23648056123940367,-0.16544869921075708,-0.07980122771119556
1745333274.3801982,-1.012051,0.105042,-0.027267,-0.002257,-0.002013,0.0044529999999999995,0.23648056123940367,-0.16544869921075708,-0.07980122771119556
1745333274.3907804,-1.012966,0.106201,-0.02562,-0.00244,-0.002562,0.004514,0.23648056123940367,-0.16544869921075708,-0.07980122771119556
1745333274.3976624,-1.013698,0.106567,-0.024278,-0.0023179999999999997,-0.0028669999999999998,0.004575,0.23648056123940367,-0.16544869921075708,-0.07980122771119556
1745333274.4098778,-1.013698,0.105164,-0.023729,-0.002013,-0.00244,0.0048189999999999995,0.23648056123940367,-0.16544869921075708,-0.07980122771119556
1745333274.4193966,-1.012478,0.106811,-0.023485,-0.0018909999999999999,-0.002257,0.004392,0.23648056123940367,-0.16544869921075708,-0.07980122771119556
1745333274.4281518,-1.012417,0.107421,-0.022265,-0.001952,-0.002074,0.004514,0.23648056123940367,-0.16544869921075708,-0.07980122771119556
1745333274.4354436,-1.014857,0.10699399999999999,-0.023424,-0.0021349999999999997,-0.0021349999999999997,0.004514,0.23648056123940367,-0.16544869921075708,-0.07980122771119556
1745333274.4503908,-1.013332,0.106506,-0.026168999999999998,-0.002196,-0.002196,0.0042699999999999995,0.23648056123940367,-0.16544869921075708,-0.07980122771119556
1745333274.457803,-1.012783,0.104615,-0.024461,-0.0021349999999999997,-0.0021349999999999997,0.004392,0.23648056123940367,-0.16544869921075708,-0.07980122771119556
1745333274.4673934,-1.017602,0.106323,-0.024278,-0.002196,-0.002562,0.004575,0.23648056123940367,-0.16544869921075708,-0.07980122771119556
1745333274.4793837,-1.011624,0.104554,-0.02989,-0.00183,-0.001769,0.004758,0.23648056123940367,-0.16544869921075708,-0.07980122771119556
1745333274.4881275,-1.013454,0.106018,-0.023972999999999998,-0.002196,-0.003111,0.004392,0.23648056123940367,-0.16544869921075708,-0.07980122771119556
1745333274.4965608,-1.010526,0.10614,-0.028731,-0.002196,-0.001769,0.004758,0.23648056123940367,-0.16544869921075708,-0.07980122771119556
1745333274.5084164,-1.017297,0.10638399999999999,-0.022021,-0.0023179999999999997,-0.002806,0.0040869999999999995,0.23648056123940367,-0.16544869921075708,-0.07980122771119556
1745333274.5183046,-1.009611,0.106567,-0.028182,-0.002074,-0.0015249999999999999,0.004758,0.23648056123940367,-0.16544869921075708,-0.07980122771119556
1745333274.5257428,-1.016199,0.106018,-0.021045,-0.001952,-0.003477,0.004148,0.23648056123940367,-0.16544869921075708,-0.07980122771119556
1745333274.5354233,-1.011014,0.107055,-0.025559,-0.0018909999999999999,-0.00183,0.004575,0.23531131248173048,-0.17246419175679625,-0.07307804735457468
1745333274.5475545,-1.017968,0.104859,-0.023058,-0.002196,-0.002745,0.0044529999999999995,0.23531131248173048,-0.17246419175679625,-0.07307804735457468
1745333274.5561922,-1.008269,0.10736,-0.025863999999999998,-0.001952,-0.001647,0.0048189999999999995,0.23531131248173048,-0.17246419175679625,-0.07307804735457468
1745333274.5666513,-1.015467,0.106445,-0.023302,-0.0021349999999999997,-0.002928,0.004575,0.23531131248173048,-0.17246419175679625,-0.07307804735457468
1745333274.5766473,-1.010404,0.106933,-0.027084,-0.0021349999999999997,-0.0018909999999999999,0.004758,0.23531131248173048,-0.17246419175679625,-0.07307804735457468
1745333274.5841024,-1.014491,0.106506,-0.026108,-0.002257,-0.0025009999999999998,0.004514,0.23531131248173048,-0.17246419175679625,-0.07307804735457468
1745333274.5957499,-1.012051,0.10638399999999999,-0.026352,-0.0021349999999999997,-0.002196,0.004575,0.23531131248173048,-0.17246419175679625,-0.07307804735457468
1745333274.605585,-1.016016,0.104615,-0.02562,-0.002257,-0.00244,0.004697,0.23531131248173048,-0.17246419175679625,-0.07307804735457468
1745333274.6143155,-1.012051,0.10614,-0.027023,-0.002074,-0.002257,0.004026,0.23531131248173048,-0.17246419175679625,-0.07307804735457468
1745333274.6248412,-1.011746,0.104554,-0.026595999999999998,-0.0018909999999999999,-0.00183,0.004514,0.23531131248173048,-0.17246419175679625,-0.07307804735457468
1745333274.6346607,-1.016016,0.105713,-0.025925,-0.002196,-0.002745,0.004514,0.23531131248173048,-0.17246419175679625,-0.07307804735457468
1745333274.6443348,-1.013149,0.106872,-0.025559,-0.002257,-0.002257,0.004514,0.23531131248173048,-0.17246419175679625,-0.07307804735457468
1745333274.6518028,-1.014064,0.10638399999999999,-0.023972999999999998,-0.001952,-0.002562,0.004697,0.23531131248173048,-0.17246419175679625,-0.07307804735457468
1745333274.663632,-1.011441,0.106323,-0.024095,-0.002013,-0.0023179999999999997,0.004514,0.23531131248173048,-0.17246419175679625,-0.07307804735457468
1745333274.673675,-1.015711,0.106018,-0.023485,-0.002257,-0.00244,0.0046359999999999995,0.23531131248173048,-0.17246419175679625,-0.07307804735457468
1745333274.6809177,-1.012356,0.10668899999999999,-0.024644,-0.0023179999999999997,-0.00244,0.004392,0.23531131248173048,-0.17246419175679625,-0.07307804735457468
1745333274.692757,-1.012356,0.106262,-0.023729,-0.002196,-0.0023179999999999997,0.004514,0.23531131248173048,-0.17246419175679625,-0.07307804735457468
1745333274.7026634,-1.0126,0.107055,-0.024461,-0.0021349999999999997,-0.0023179999999999997,0.004697,0.23531131248173048,-0.17246419175679625,-0.07307804735457468
1745333274.7101126,-1.014613,0.105591,-0.025681,-0.0023179999999999997,-0.002623,0.004575,0.23531131248173048,-0.17246419175679625,-0.07307804735457468
1745333274.7196777,-1.012356,0.105591,-0.026535,-0.0018909999999999999,-0.002379,0.004697,0.23531131248173048,-0.17246419175679625,-0.07307804735457468
1745333274.7316637,-1.013454,0.10577399999999999,-0.026718,-0.00183,-0.002196,0.004514,0.23531131248173048,-0.17246419175679625,-0.07307804735457468
1745333274.7403152,-1.012539,0.105835,-0.026718,-0.0018909999999999999,-0.002196,0.0046359999999999995,0.2329728149663841,-0.1636948260742473,-0.08418591055247004
1745333274.7487595,-1.014613,0.106933,-0.026047,-0.001952,-0.002196,0.0042699999999999995,0.2329728149663841,-0.1636948260742473,-0.08418591055247004
1745333274.7606194,-1.013271,0.10699399999999999,-0.026474,-0.002257,-0.002257,0.0046359999999999995,0.2329728149663841,-0.1636948260742473,-0.08418591055247004
1745333274.7704487,-1.014125,0.105408,-0.024644,-0.0021349999999999997,-0.00244,0.004392,0.2329728149663841,-0.1636948260742473,-0.08418591055247004
1745333274.7778614,-1.014796,0.105347,-0.024461,-0.002013,-0.00244,0.004514,0.2329728149663841,-0.1636948260742473,-0.08418591055247004
1745333274.788085,-1.012051,0.106018,-0.023912,-0.002196,-0.0021349999999999997,0.004575,0.2329728149663841,-0.1636948260742473,-0.08418591055247004
1745333274.7996929,-1.012661,0.10614,-0.023912,-0.0021349999999999997,-0.002562,0.004514,0.2329728149663841,-0.1636948260742473,-0.08418591055247004
1745333274.8069696,-1.013088,0.106018,-0.024339,-0.002074,-0.00244,0.004514,0.2329728149663841,-0.1636948260742473,-0.08418591055247004
1745333274.8166418,-1.013637,0.106323,-0.024827,-0.002074,-0.002562,0.0046359999999999995,0.2329728149663841,-0.1636948260742473,-0.08418591055247004
1745333274.8287408,-1.012417,0.106628,-0.025131999999999998,-0.002196,-0.00244,0.0046359999999999995,0.2329728149663841,-0.1636948260742473,-0.08418591055247004
1745333274.83633,-1.014308,0.105835,-0.024583,-0.002196,-0.00244,0.0046359999999999995,0.2329728149663841,-0.1636948260742473,-0.08418591055247004
1745333274.8478534,-1.012722,0.10492,-0.026168999999999998,-0.0021349999999999997,-0.002379,0.004575,0.2329728149663841,-0.1636948260742473,-0.08418591055247004
1745333274.8577127,-1.013881,0.105591,-0.023912,-0.002074,-0.001952,0.0046359999999999995,0.2329728149663841,-0.1636948260742473,-0.08418591055247004
1745333274.8664055,-1.013942,0.105408,-0.025498,-0.002013,-0.0023179999999999997,0.0046359999999999995,0.2329728149663841,-0.1636948260742473,-0.08418591055247004
1745333274.8769426,-1.014369,0.10668899999999999,-0.027206,-0.002196,-0.002379,0.0046359999999999995,0.2329728149663841,-0.1636948260742473,-0.08418591055247004
1745333274.8867218,-1.01199,0.106933,-0.025498,-0.002257,-0.002562,0.0046359999999999995,0.2329728149663841,-0.1636948260742473,-0.08418591055247004
1745333274.8965437,-1.012966,0.106323,-0.024704999999999998,-0.002196,-0.002745,0.0044529999999999995,0.2329728149663841,-0.1636948260742473,-0.08418591055247004
1745333274.904106,-1.014491,0.106323,-0.023972999999999998,-0.002013,-0.001952,0.0044529999999999995,0.2329728149663841,-0.1636948260742473,-0.08418591055247004
1745333274.9158247,-1.015101,0.10638399999999999,-0.025803,-0.0017079999999999999,-0.002562,0.0042699999999999995,0.2329728149663841,-0.1636948260742473,-0.08418591055247004
1745333274.9256914,-1.010282,0.105713,-0.024766,-0.001952,-0.001281,0.0053679999999999995,0.2329728149663841,-0.1636948260742473,-0.08418591055247004
1745333274.9330864,-1.018822,0.10699399999999999,-0.025986,-0.0023179999999999997,-0.0028669999999999998,0.0042699999999999995,0.2329728149663841,-0.1636948260742473,-0.08418591055247004
1745333274.944899,-1.00528,0.105591,-0.025559,-0.002196,-0.001464,0.004575,0.23823443437591346,-0.17100263080970476,-0.07804735457468577
1745333274.9548385,-1.020774,0.106262,-0.023972999999999998,-0.0021349999999999997,-0.003538,0.0040869999999999995,0.23823443437591346,-0.17100263080970476,-0.07804735457468577
1745333274.9622948,-1.006134,0.105042,-0.028426,-0.002196,-0.001281,0.00488,0.23823443437591346,-0.17100263080970476,-0.07804735457468577
1745333274.972839,-1.018395,0.106262,-0.022265,-0.0023179999999999997,-0.0030499999999999998,0.004331,0.23823443437591346,-0.17100263080970476,-0.07804735457468577
1745333274.9838471,-1.010099,0.105896,-0.026047,-0.002074,-0.0018909999999999999,0.0044529999999999995,0.23823443437591346,-0.17100263080970476,-0.07804735457468577
1745333274.9924748,-1.014857,0.106445,-0.025863999999999998,-0.002074,-0.0023179999999999997,0.004209,0.23823443437591346,-0.17100263080970476,-0.07804735457468577
1745333275.000936,-1.012356,0.10675,-0.025559,-0.002074,-0.002562,0.004697,0.23823443437591346,-0.17100263080970476,-0.07804735457468577
1745333275.0128586,-1.012234,0.10699399999999999,-0.025071,-0.001769,-0.001952,0.0048189999999999995,0.23823443437591346,-0.17100263080970476,-0.07804735457468577
1745333275.0226576,-1.013759,0.10668899999999999,-0.026352,-0.0021349999999999997,-0.002623,0.0046359999999999995,0.23823443437591346,-0.17100263080970476,-0.07804735457468577
1745333275.0300593,-1.009733,0.105347,-0.024339,-0.0023179999999999997,-0.0026839999999999998,0.0046359999999999995,0.23823443437591346,-0.17100263080970476,-0.07804735457468577
1745333275.0415962,-1.015772,0.105225,-0.023424,-0.002196,-0.002562,0.004941,0.23823443437591346,-0.17100263080970476,-0.07804735457468577
1745333275.0518758,-1.010526,0.105591,-0.025559,-0.002196,-0.002074,0.0044529999999999995,0.23823443437591346,-0.17100263080970476,-0.07804735457468577
1745333275.0591617,-1.014796,0.105042,-0.026108,-0.0023179999999999997,-0.0023179999999999997,0.004697,0.23823443437591346,-0.17100263080970476,-0.07804735457468577
1745333275.0688336,-1.013576,0.10638399999999999,-0.025498,-0.002013,-0.0025009999999999998,0.004148,0.23823443437591346,-0.17100263080970476,-0.07804735457468577
1745333275.0809178,-1.015406,0.105957,-0.025986,-0.00183,-0.0023179999999999997,0.004575,0.23823443437591346,-0.17100263080970476,-0.07804735457468577
1745333275.0885777,-1.013332,0.10467599999999999,-0.025436999999999998,-0.002074,-0.0021349999999999997,0.004697,0.23823443437591346,-0.17100263080970476,-0.07804735457468577
1745333275.0979125,-1.014125,0.10614,-0.027327999999999998,-0.001952,-0.002562,0.0048189999999999995,0.23823443437591346,-0.17100263080970476,-0.07804735457468577
1745333275.1098578,-1.012417,0.106872,-0.024644,-0.002196,-0.002562,0.004758,0.23823443437591346,-0.17100263080970476,-0.07804735457468577
1745333275.1194315,-1.013698,0.106262,-0.024278,-0.0021349999999999997,-0.0026839999999999998,0.004331,0.23823443437591346,-0.17100263080970476,-0.07804735457468577
1745333275.127094,-1.014552,0.106323,-0.023729,-0.002196,-0.002379,0.0046359999999999995,0.23823443437591346,-0.17100263080970476,-0.07804735457468577
1745333275.1367722,-1.013637,0.107116,-0.023485,-0.002257,-0.0025009999999999998,0.0046359999999999995,0.23823443437591346,-0.17100263080970476,-0.07804735457468577
1745333275.1487017,-1.013698,0.106018,-0.024095,-0.002074,-0.002379,0.0046359999999999995,0.24524992692195263,-0.16954106986261328,-0.0799473838059047
1745333275.1575923,-1.011502,0.106018,-0.025681,-0.0023179999999999997,-0.0021349999999999997,0.00488,0.24524992692195263,-0.16954106986261328,-0.0799473838059047
1745333275.16797,-1.013515,0.106506,-0.024766,-0.0021349999999999997,-0.002806,0.004758,0.24524992692195263,-0.16954106986261328,-0.0799473838059047
1745333275.1779082,-1.016321,0.106323,-0.025986,-0.002257,-0.002196,0.004697,0.24524992692195263,-0.16954106986261328,-0.0799473838059047
1745333275.1852648,-1.008452,0.105408,-0.028304,-0.002013,-0.0017079999999999999,0.004514,0.24524992692195263,-0.16954106986261328,-0.0799473838059047
1745333275.1970468,-1.014796,0.10668899999999999,-0.025559,-0.0023179999999999997,-0.002806,0.0042699999999999995,0.24524992692195263,-0.16954106986261328,-0.0799473838059047
1745333275.2071106,-1.010587,0.105103,-0.027084,-0.0025009999999999998,-0.00183,0.004575,0.24524992692195263,-0.16954106986261328,-0.0799473838059047
1745333275.2147598,-1.017602,0.105896,-0.024095,-0.002257,-0.0030499999999999998,0.004209,0.24524992692195263,-0.16954106986261328,-0.0799473838059047
1745333275.2261107,-1.008269,0.106567,-0.028487,-0.002074,-0.001403,0.0046359999999999995,0.24524992692195263,-0.16954106986261328,-0.0799473838059047
1745333275.235931,-1.016565,0.10607899999999999,-0.02318,-0.002257,-0.003111,0.0044529999999999995,0.24524992692195263,-0.16954106986261328,-0.0799473838059047
1745333275.244833,-1.011319,0.105896,-0.025803,-0.002196,-0.002074,0.0048189999999999995,0.24524992692195263,-0.16954106986261328,-0.0799473838059047
1745333275.2530675,-1.016077,0.104554,-0.024827,-0.002013,-0.0025009999999999998,0.004758,0.24524992692195263,-0.16954106986261328,-0.0799473838059047
1745333275.2649057,-1.008574,0.105957,-0.024766,-0.0017079999999999999,-0.002013,0.00488,0.24524992692195263,-0.16954106986261328,-0.0799473838059047
1745333275.2747467,-1.01504,0.105408,-0.024278,-0.0021349999999999997,-0.002745,0.004697,0.24524992692195263,-0.16954106986261328,-0.0799473838059047
1745333275.2821856,-1.01382,0.105408,-0.025925,-0.001952,-0.002562,0.004697,0.24524992692195263,-0.16954106986261328,-0.0799473838059047
1745333275.2939854,-1.013027,0.10668899999999999,-0.024217,-0.002013,-0.002379,0.004331,0.24524992692195263,-0.16954106986261328,-0.0799473838059047
1745333275.3039527,-1.011929,0.105347,-0.024399999999999998,-0.002257,-0.0021349999999999997,0.004392,0.24524992692195263,-0.16954106986261328,-0.0799473838059047
1745333275.3112726,-1.011807,0.105896,-0.025681,-0.002074,-0.0021349999999999997,0.004392,0.24524992692195263,-0.16954106986261328,-0.0799473838059047
1745333275.3209355,-1.012783,0.105713,-0.023912,-0.002074,-0.002196,0.0046359999999999995,0.24524992692195263,-0.16954106986261328,-0.0799473838059047
1745333275.3329365,-1.010953,0.106872,-0.025986,-0.0018909999999999999,-0.0023179999999999997,0.0048189999999999995,0.24524992692195263,-0.16954106986261328,-0.0799473838059047
1745333275.341158,-1.016931,0.10675,-0.025559,-0.0021349999999999997,-0.0021349999999999997,0.004697,0.24524992692195263,-0.16954106986261328,-0.0799473838059047
