Timestamp,Accel X,Accel Y,Accel Z,Gyro X,Gyro Y,Gyro Z,Magneto X,Magneto Y,Magneto Z
1742920002.859047,-1.005524,0.052643,-0.154391,-0.04026,0.022448,-0.017324,0.25109617071031864,0.07278573516515639,0.1645717626425022
1742920002.8753924,-0.9961909999999999,0.01525,-0.15006,-0.043188,0.020984,-0.016104,0.25109617071031864,0.07278573516515639,0.1645717626425022
1742920002.8947453,-1.003267,0.0057339999999999995,-0.146949,-0.050508,0.019032,-0.014152,0.25109617071031864,0.07278573516515639,0.1645717626425022
1742920002.914002,-1.019981,0.022143,-0.145424,-0.05978,0.017811999999999998,-0.011956,0.25109617071031864,0.07278573516515639,0.1645717626425022
1742920002.9333067,-1.022543,0.038857,-0.14249599999999998,-0.066612,0.016836,-0.012931999999999999,0.25109617071031864,0.07278573516515639,0.1645717626425022
1742920002.9526017,-1.003816,0.033672,-0.14127599999999998,-0.072468,0.01586,-0.01464,0.25109617071031864,0.07278573516515639,0.1645717626425022
1742920002.9719057,-1.004975,0.032818,-0.145729,-0.08003199999999999,0.013663999999999999,-0.01586,0.24817304881613564,0.05583162817889506,0.17831043554516224
1742920002.991221,-1.011746,0.028059999999999998,-0.151951,-0.088328,0.016104,-0.017324,0.24817304881613564,0.05583162817889506,0.17831043554516224
1742920003.0105133,-1.016321,0.031049,-0.15677,-0.097844,0.020007999999999998,-0.0183,0.24817304881613564,0.05583162817889506,0.17831043554516224
1742920003.0298405,-1.016992,0.022203999999999998,-0.15914899999999998,-0.10638399999999999,0.025131999999999998,-0.021716,0.24817304881613564,0.05583162817889506,0.17831043554516224
1742920003.049136,-1.019188,0.0064659999999999995,-0.164578,-0.114192,0.030255999999999998,-0.027327999999999998,0.24817304881613564,0.05583162817889506,0.17831043554516224
1742920003.0713816,-1.002352,0.004331,-0.167628,-0.122,0.034159999999999996,-0.029523999999999998,0.24817304881613564,0.05583162817889506,0.17831043554516224
1742920003.0877254,-0.9871019999999999,0.016653,-0.170129,-0.127856,0.036844,-0.029768,0.24817304881613564,0.05583162817889506,0.17831043554516224
1742920003.1070182,-0.9816119999999999,0.022631,-0.170068,-0.132736,0.038551999999999996,-0.0305,0.24817304881613564,0.05583162817889506,0.17831043554516224
1742920003.126317,-0.967338,0.021471999999999998,-0.17238599999999998,-0.13786,0.038308,-0.032208,0.24817304881613564,0.05583162817889506,0.17831043554516224
1742920003.1456113,-0.957822,0.024399999999999998,-0.174399,-0.14274,0.034404,-0.03538,0.24817304881613564,0.05583162817889506,0.17831043554516224
1742920003.1649063,-0.948001,0.029036,-0.178913,-0.146888,0.029768,-0.038308,0.24817304881613564,0.05583162817889506,0.17831043554516224
1742920003.18419,-0.956297,0.016592,-0.176778,-0.153476,0.022203999999999998,-0.037332,0.22566501023092664,0.03010815551008477,0.20491084478222743
1742920003.2034922,-0.961726,0.035075,-0.18178,-0.16591999999999998,0.020252,-0.031232,0.22566501023092664,0.03010815551008477,0.20491084478222743
1742920003.2227817,-0.9335439999999999,0.038064,-0.197213,-0.168604,0.017811999999999998,-0.032695999999999996,0.22566501023092664,0.03010815551008477,0.20491084478222743
1742920003.2420933,-0.950746,-0.007137,-0.202825,-0.165188,0.010248,-0.03538,0.22566501023092664,0.03010815551008477,0.20491084478222743
1742920003.261383,-0.918721,-0.012688,-0.20197099999999998,-0.167628,0.0026839999999999998,-0.035623999999999996,0.22566501023092664,0.03010815551008477,0.20491084478222743
1742920003.280702,-0.913353,-0.004514,-0.206363,-0.169336,-0.005124,-0.040015999999999996,0.22566501023092664,0.03010815551008477,0.20491084478222743
1742920003.2999697,-0.922442,-0.015067,-0.207278,-0.172264,-0.012931999999999999,-0.0427,0.22566501023092664,0.03010815551008477,0.20491084478222743
1742920003.3192632,-0.9478179999999999,-0.023972999999999998,-0.208803,-0.17885199999999998,-0.016836,-0.043676,0.22566501023092664,0.03010815551008477,0.20491084478222743
1742920003.3393915,-0.9742919999999999,-0.011041,-0.211365,-0.189832,-0.015127999999999999,-0.041479999999999996,0.22566501023092664,0.03010815551008477,0.20491084478222743
1742920003.3578541,-0.960384,-0.001037,-0.210938,-0.199592,-0.008539999999999999,-0.039772,0.22566501023092664,0.03010815551008477,0.20491084478222743
1742920003.3771515,-0.965264,-0.0062829999999999995,-0.21520799999999998,-0.206668,-0.00488,-0.038064,0.2323881905875475,-0.014615609470914937,0.20798012277111955
1742920003.3975773,-0.95465,-0.009821,-0.209779,-0.21276799999999998,-0.0034159999999999998,-0.036112,0.2323881905875475,-0.014615609470914937,0.20798012277111955
1742920003.4163263,-0.951051,-0.009211,-0.207766,-0.218136,-0.000976,-0.035136,0.2323881905875475,-0.014615609470914937,0.20798012277111955
1742920003.4357364,-0.967765,-0.00793,-0.212646,-0.221308,0.000244,-0.03782,0.2323881905875475,-0.014615609470914937,0.20798012277111955
1742920003.4543786,-0.96197,-0.013176,-0.204716,-0.22326,-0.001464,-0.043676,0.2323881905875475,-0.014615609470914937,0.20798012277111955
1742920003.4736657,-0.9681919999999999,-0.022753,-0.200263,-0.226432,-0.003904,-0.050752,0.2323881905875475,-0.014615609470914937,0.20798012277111955
1742920003.4929714,-0.9709369999999999,-0.027816,-0.189832,-0.231068,-0.0068319999999999995,-0.055632,0.2323881905875475,-0.014615609470914937,0.20798012277111955
1742920003.5122721,-0.9761219999999999,-0.021899,-0.18605,-0.236924,-0.0046359999999999995,-0.057583999999999996,0.2323881905875475,-0.014615609470914937,0.20798012277111955
1742920003.531568,-0.978684,-0.013054,-0.184037,-0.240584,-0.003172,-0.058072,0.2323881905875475,-0.014615609470914937,0.20798012277111955
1742920003.5530539,-0.955382,-0.022021,-0.176168,-0.244976,-0.013908,-0.063684,0.2323881905875475,-0.014615609470914937,0.20798012277111955
1742920003.570159,-0.955382,-0.022021,-0.176168,-0.24912399999999998,-0.020252,-0.069296,0.2323881905875475,-0.014615609470914937,0.20798012277111955
1742920003.5894594,-0.964532,-0.003477,-0.182207,-0.253516,-0.021228,-0.07198,0.2379421221864952,-0.06577024261911722,0.19994153756211633
1742920003.6087544,-0.971913,-0.005307,-0.200019,-0.257664,-0.018543999999999998,-0.07564,0.2379421221864952,-0.06577024261911722,0.19994153756211633
1742920003.6280522,-1.003023,-0.000244,-0.208376,-0.26156799999999997,-0.015616,-0.0793,0.2379421221864952,-0.06577024261911722,0.19994153756211633
1742920003.6473463,-0.999668,-0.001037,-0.20813199999999998,-0.264984,-0.011956,-0.082472,0.2379421221864952,-0.06577024261911722,0.19994153756211633
1742920003.6666472,-0.992958,0.009394,-0.21490299999999998,-0.269132,-0.007076,-0.083204,0.2379421221864952,-0.06577024261911722,0.19994153756211633
1742920003.68595,-0.9903959999999999,0.005063,-0.216184,-0.273036,-0.003904,-0.08052,0.2379421221864952,-0.06577024261911722,0.19994153756211633
1742920003.7052398,-1.006317,0.010735999999999999,-0.220271,-0.277916,-0.000488,-0.077348,0.2379421221864952,-0.06577024261911722,0.19994153756211633
1742920003.7245433,-1.021628,0.007442,-0.226249,-0.283528,0.0053679999999999995,-0.072956,0.2379421221864952,-0.06577024261911722,0.19994153756211633
1742920003.7438393,-1.0416969999999999,-0.0073809999999999995,-0.224053,-0.288896,0.012688,-0.06709999999999999,0.2379421221864952,-0.06577024261911722,0.19994153756211633
1742920003.7653368,-1.03883,-0.014823,-0.223931,-0.294996,0.02318,-0.061975999999999996,0.2379421221864952,-0.06577024261911722,0.19994153756211633
1742920003.7824357,-1.033035,-0.001464,-0.222345,-0.298412,0.030987999999999998,-0.061244,0.2379421221864952,-0.06577024261911722,0.19994153756211633
1742920003.8017323,-1.003938,0.004331,-0.20801,-0.298168,0.034892,-0.06466,0.23764980999707688,-0.12277111955568547,0.1775796550716165
1742920003.8210301,-0.989359,-0.002257,-0.195871,-0.298168,0.035136,-0.069052,0.23764980999707688,-0.12277111955568547,0.1775796550716165
1742920003.8403542,-0.992897,-0.013725,-0.192089,-0.300852,0.031232,-0.06831999999999999,0.23764980999707688,-0.12277111955568547,0.1775796550716165
1742920003.8596368,-0.995215,-0.016592,-0.197518,-0.304024,0.026352,-0.06417199999999999,0.23764980999707688,-0.12277111955568547,0.1775796550716165
1742920003.8789368,-1.004792,-0.008539999999999999,-0.206851,-0.306708,0.022448,-0.060511999999999996,0.23764980999707688,-0.12277111955568547,0.1775796550716165
1742920003.8983247,-1.012905,0.010065,-0.213256,-0.30744,0.018543999999999998,-0.060511999999999996,0.23764980999707688,-0.12277111955568547,0.1775796550716165
1742920003.9175892,-1.02236,0.032025,-0.220698,-0.306708,0.0183,-0.062952,0.23764980999707688,-0.12277111955568547,0.1775796550716165
1742920003.936858,-1.010221,0.034709,-0.224907,-0.305488,0.020984,-0.065636,0.23764980999707688,-0.12277111955568547,0.1775796550716165
1742920003.9561548,-1.005219,0.028975,-0.225517,-0.304024,0.023667999999999998,-0.070516,0.23764980999707688,-0.12277111955568547,0.1775796550716165
1742920003.9776878,-1.003877,0.044042,-0.228018,-0.301096,0.029523999999999998,-0.07710399999999999,0.23764980999707688,-0.12277111955568547,0.1775796550716165
1742920003.9947772,-1.014674,0.063623,-0.236131,-0.294752,0.03538,-0.082228,0.23706518561824028,-0.1862028646594563,0.1628178895059924
1742920004.0140772,-1.020164,0.071431,-0.241072,-0.287432,0.03782,-0.083204,0.23706518561824028,-0.1862028646594563,0.1628178895059924
1742920004.0333848,-1.031998,0.073749,-0.241682,-0.278648,0.041724,-0.081984,0.23706518561824028,-0.1862028646594563,0.1628178895059924
1742920004.0526779,-1.041331,0.062403,-0.240584,-0.268156,0.045628,-0.082716,0.23706518561824028,-0.1862028646594563,0.1628178895059924
1742920004.0719635,-1.038769,0.068259,-0.243085,-0.25668799999999997,0.050263999999999996,-0.08662,0.23706518561824028,-0.1862028646594563,0.1628178895059924
1742920004.0912662,-1.007049,0.073322,-0.24644,-0.242292,0.052948,-0.0915,0.23706518561824028,-0.1862028646594563,0.1628178895059924
1742920004.1105635,-0.961177,0.061061,-0.242536,-0.227164,0.05002,-0.09638,0.23706518561824028,-0.1862028646594563,0.1628178895059924
1742920004.129863,-0.970205,0.059536,-0.242475,-0.215696,0.041479999999999996,-0.099552,0.23706518561824028,-0.1862028646594563,0.1628178895059924
1742920004.1491566,-0.988444,0.075152,-0.249612,-0.204716,0.033672,-0.098332,0.23706518561824028,-0.1862028646594563,0.1628178895059924
1742920004.1684556,-1.026325,0.098454,-0.258091,-0.192028,0.025376,-0.094184,0.23706518561824028,-0.1862028646594563,0.1628178895059924
1742920004.1904745,-1.041148,0.125416,-0.275232,-0.17812,0.021716,-0.087596,0.23706518561824028,-0.1862028646594563,0.1628178895059924
1742920004.2070515,-1.017846,0.137799,-0.285785,-0.166652,0.015372,-0.078568,0.23969599532300498,-0.2098801520023385,0.1527331189710611
1742920004.22635,-0.989298,0.142374,-0.28621199999999997,-0.161528,0.00488,-0.07002799999999999,0.23969599532300498,-0.2098801520023385,0.1527331189710611
1742920004.2456436,-1.001437,0.138531,-0.291885,-0.159332,-0.001952,-0.068076,0.23969599532300498,-0.2098801520023385,0.1527331189710611
1742920004.2649388,-0.996435,0.125355,-0.299083,-0.157136,-0.002928,-0.068564,0.23969599532300498,-0.2098801520023385,0.1527331189710611
1742920004.2842333,-0.9822219999999999,0.12486699999999999,-0.302926,-0.155184,-0.004392,-0.06831999999999999,0.23969599532300498,-0.2098801520023385,0.1527331189710611
1742920004.3035414,-0.942999,0.148291,-0.300486,-0.1525,-0.0075639999999999995,-0.065148,0.23969599532300498,-0.2098801520023385,0.1527331189710611
1742920004.3228552,-0.9326289999999999,0.17854699999999998,-0.302194,-0.14762,-0.012931999999999999,-0.060024,0.23969599532300498,-0.2098801520023385,0.1527331189710611
1742920004.3421552,-0.9122549999999999,0.187209,-0.300486,-0.140544,-0.015372,-0.054412,0.23969599532300498,-0.2098801520023385,0.1527331189710611
1742920004.3614345,-0.903593,0.17263,-0.300791,-0.133712,-0.014884,-0.049776,0.23969599532300498,-0.2098801520023385,0.1527331189710611
1742920004.380743,-0.87596,0.133224,-0.298595,-0.128588,-0.013908,-0.046848,0.23969599532300498,-0.2098801520023385,0.1527331189710611
1742920004.4037676,-0.901763,0.11992599999999999,-0.303719,-0.12566,-0.015127999999999999,-0.049532,0.2508038585209003,-0.21514177141186788,0.12437883659748611
1742920004.4198873,-0.906277,0.116815,-0.308599,-0.121756,-0.01586,-0.051972,0.2508038585209003,-0.21514177141186788,0.12437883659748611
1742920004.439268,-0.903532,0.10858,-0.305488,-0.120536,-0.017324,-0.051727999999999996,0.2508038585209003,-0.21514177141186788,0.12437883659748611
1742920004.4585822,-0.8994449999999999,0.120109,-0.30134,-0.122732,-0.017811999999999998,-0.049532,0.2508038585209003,-0.21514177141186788,0.12437883659748611
1742920004.4777737,-0.916525,0.12078,-0.29585,-0.121756,-0.019275999999999998,-0.045871999999999996,0.2508038585209003,-0.21514177141186788,0.12437883659748611
1742920004.4965224,-0.890356,0.106018,-0.289262,-0.119072,-0.016104,-0.04026,0.2508038585209003,-0.21514177141186788,0.12437883659748611
1742920004.515816,-0.8873059999999999,0.10284599999999999,-0.289872,-0.119804,-0.018543999999999998,-0.033672,0.2508038585209003,-0.21514177141186788,0.12437883659748611
1742920004.5351057,-0.886818,0.108153,-0.300913,-0.121268,-0.022935999999999998,-0.030012,0.2508038585209003,-0.21514177141186788,0.12437883659748611
1742920004.5544055,-0.8699209999999999,0.125111,-0.302011,-0.12224399999999999,-0.030987999999999998,-0.026352,0.2508038585209003,-0.21514177141186788,0.12437883659748611
1742920004.5737257,-0.850889,0.130967,-0.302133,-0.12078,-0.040015999999999996,-0.021716,0.2508038585209003,-0.21514177141186788,0.12437883659748611
1742920004.593018,-0.84912,0.124928,-0.30445099999999997,-0.11809599999999999,-0.050508,-0.018056,0.2508038585209003,-0.21514177141186788,0.12437883659748611
1742920004.612318,-0.86071,0.126026,-0.315553,-0.115656,-0.059536,-0.015127999999999999,0.26980415083308973,-0.2306343174510377,0.08900906167787197
1742920004.6316035,-0.903654,0.127002,-0.334768,-0.116144,-0.069052,-0.008784,0.26980415083308973,-0.2306343174510377,0.08900906167787197
1742920004.6532447,-0.926468,0.126697,-0.349835,-0.11809599999999999,-0.072956,0.061488,0.26980415083308973,-0.2306343174510377,0.08900906167787197
1742920004.6701908,-0.925187,0.113521,-0.3599,-0.11638799999999999,-0.07198,0.00244,0.26980415083308973,-0.2306343174510377,0.08900906167787197
1742920004.6894844,-0.931836,0.104737,-0.369294,-0.114924,-0.067832,0.003904,0.26980415083308973,-0.2306343174510377,0.08900906167787197
1742920004.7087831,-0.943487,0.113521,-0.376004,-0.114436,-0.06222,0.005856,0.26980415083308973,-0.2306343174510377,0.08900906167787197
1742920004.728078,-0.908656,0.117852,-0.379664,-0.111996,-0.054412,0.011956,0.26980415083308973,-0.2306343174510377,0.08900906167787197
1742920004.7473688,-0.9344589999999999,0.102419,-0.38765499999999997,-0.107848,-0.047335999999999996,0.013663999999999999,0.26980415083308973,-0.2306343174510377,0.08900906167787197
1742920004.7666693,-0.947025,0.101809,-0.39283999999999997,-0.103212,-0.040504,0.017811999999999998,0.26980415083308973,-0.2306343174510377,0.08900906167787197
1742920004.7859612,-0.964593,0.089914,-0.391498,-0.096868,-0.032452,0.018543999999999998,0.26980415083308973,-0.2306343174510377,0.08900906167787197
1742920004.8052552,-0.956419,0.081069,-0.391498,-0.093208,-0.027816,0.015127999999999999,0.26980415083308973,-0.2306343174510377,0.08900906167787197
1742920004.8245578,-1.006256,0.094001,-0.405955,-0.092476,-0.01464,0.009516,0.2741888336743642,-0.24788073662671734,0.04852382344343759
1742920004.8438773,-1.013942,0.086071,-0.41290899999999997,-0.083448,-0.003172,0.00976,0.2741888336743642,-0.24788073662671734,0.04852382344343759
1742920004.86557,-1.063291,0.07063799999999999,-0.414556,-0.078568,0.00976,0.00976,0.2741888336743642,-0.24788073662671734,0.04852382344343759
1742920004.8824666,-1.063291,0.081801,-0.40211199999999997,-0.072468,0.025863999999999998,0.005612,0.2741888336743642,-0.24788073662671734,0.04852382344343759
1742920004.9018097,-1.071282,0.088023,-0.381067,-0.06539199999999999,0.037332,-0.00244,0.2741888336743642,-0.24788073662671734,0.04852382344343759
1742920004.9210796,-1.075186,0.092293,-0.365634,-0.057583999999999996,0.050263999999999996,-0.007076,0.2741888336743642,-0.24788073662671734,0.04852382344343759
1742920004.9403725,-1.114897,0.083692,-0.36173,-0.05002,0.060756,-0.009271999999999999,0.2741888336743642,-0.24788073662671734,0.04852382344343759
1742920004.9596677,-1.107028,0.076555,-0.337086,-0.044164,0.06344,-0.008539999999999999,0.2741888336743642,-0.24788073662671734,0.04852382344343759
1742920004.9789598,-1.0952549999999999,0.033001,-0.319274,-0.041236,0.072468,-0.011712,0.2741888336743642,-0.24788073662671734,0.04852382344343759
1742920004.9982638,-1.090619,0.01159,-0.298717,-0.047824,0.070516,-0.020739999999999998,0.2741888336743642,-0.24788073662671734,0.04852382344343759
1742920005.0175612,-1.109651,0.053314,-0.29402,-0.055876,0.072224,-0.032208,0.2741888336743642,-0.24788073662671734,0.04852382344343759
1742920005.0369065,-1.135271,0.07033299999999999,-0.278343,-0.058804,0.06588,-0.027572,0.2645425314235604,-0.24817304881613564,0.05407775504238527
1742920005.0561883,-1.160098,0.058011,-0.264618,-0.061488,0.06417199999999999,-0.008296,0.2645425314235604,-0.24817304881613564,0.05407775504238527
1742920005.077929,-1.126182,0.10760399999999999,-0.264679,-0.06588,0.061488,0.011956,0.2645425314235604,-0.24817304881613564,0.05407775504238527
1742920005.0947824,-1.109102,0.144753,-0.26004299999999997,-0.061,0.046848,0.017568,0.2645425314235604,-0.24817304881613564,0.05407775504238527
1742920005.1140704,-1.008818,0.11956,-0.25254,-0.049044,0.031232,0.009516,0.2645425314235604,-0.24817304881613564,0.05407775504238527
1742920005.1333604,-0.925675,0.086986,-0.244,-0.038064,0.01464,-0.0075639999999999995,0.2645425314235604,-0.24817304881613564,0.05407775504238527
1742920005.152653,-0.880962,0.077592,-0.247477,-0.029523999999999998,0.008784,-0.020252,0.2645425314235604,-0.24817304881613564,0.05407775504238527
1742920005.1719465,-0.976183,0.079971,-0.28346699999999997,-0.023667999999999998,0.010735999999999999,-0.025131999999999998,0.2645425314235604,-0.24817304881613564,0.05407775504238527
1742920005.191251,-0.952881,0.091866,-0.28041699999999997,-0.023912,0.016592,-0.016104,0.2645425314235604,-0.24817304881613564,0.05407775504238527
1742920005.2105384,-1.004609,0.07991,-0.297253,-0.020496,0.030987999999999998,-0.012444,0.2645425314235604,-0.24817304881613564,0.05407775504238527
1742920005.2298305,-0.975146,0.06649,-0.279014,-0.012931999999999999,0.035868,-0.0068319999999999995,0.26395790704472377,-0.25051154633148204,0.06518561824028062
1742920005.249122,-0.9505629999999999,0.069723,-0.266326,-0.002928,0.041724,-0.008784,0.26395790704472377,-0.25051154633148204,0.06518561824028062
1742920005.2684216,-0.932202,0.067832,-0.258274,0.005856,0.041236,-0.014395999999999999,0.26395790704472377,-0.25051154633148204,0.06518561824028062
1742920005.29011,-0.936228,0.068381,-0.247965,0.011467999999999999,0.034404,-0.016104,0.26395790704472377,-0.25051154633148204,0.06518561824028062
1742920005.3070107,-0.912743,0.086376,-0.241621,0.015616,0.030012,-0.007808,0.26395790704472377,-0.25051154633148204,0.06518561824028062
1742920005.3263054,-0.881633,0.076311,-0.229238,0.022448,0.019764,0.0034159999999999998,0.26395790704472377,-0.25051154633148204,0.06518561824028062
1742920005.3456225,-0.8802909999999999,0.08680299999999999,-0.216306,0.025863999999999998,0.0046359999999999995,0.010003999999999999,0.26395790704472377,-0.25051154633148204,0.06518561824028062
1742920005.3649082,-0.842837,0.09406199999999999,-0.217343,0.025863999999999998,-0.002196,0.017079999999999998,0.26395790704472377,-0.25051154633148204,0.06518561824028062
1742920005.3842034,-0.850645,0.083631,-0.225639,0.026352,-0.014884,0.026108,0.26395790704472377,-0.25051154633148204,0.06518561824028062
1742920005.4039214,-0.8474119999999999,0.076311,-0.225334,0.026352,-0.027572,0.033672,0.26395790704472377,-0.25051154633148204,0.06518561824028062
1742920005.4228504,-0.893833,0.108946,-0.240401,0.026108,-0.0366,0.036844,0.26395790704472377,-0.25051154633148204,0.06518561824028062
1742920005.4421208,-0.889563,0.11651,-0.250222,0.024644,-0.046116,0.038064,0.2569424144986846,-0.24729611224788073,0.0689856767027185
1742920005.461947,-0.926468,0.103822,-0.267851,0.023912,-0.049776,0.041968,0.2569424144986846,-0.24729611224788073,0.0689856767027185
1742920005.481126,-0.8988349999999999,0.08558299999999999,-0.28346699999999997,0.028304,-0.0427,0.053436,0.2569424144986846,-0.24729611224788073,0.0689856767027185
1742920005.5003815,-0.961299,0.046116,-0.319457,0.035623999999999996,-0.032695999999999996,0.060511999999999996,0.2569424144986846,-0.24729611224788073,0.0689856767027185
1742920005.5193183,-0.900604,0.11773,-0.299693,0.038551999999999996,-0.02562,0.068076,0.2569424144986846,-0.24729611224788073,0.0689856767027185
1742920005.538595,-0.9554429999999999,0.130723,-0.328424,0.049532,-0.004148,0.063196,0.2569424144986846,-0.24729611224788073,0.0689856767027185
1742920005.5578952,-0.956907,0.107055,-0.30780599999999997,0.06222,-0.00244,0.05368,0.2569424144986846,-0.24729611224788073,0.0689856767027185
1742920005.5771775,-0.999302,0.078263,-0.301767,0.074664,0.010735999999999999,0.040748,0.2569424144986846,-0.24729611224788073,0.0689856767027185
1742920005.5964751,-1.010953,0.078629,-0.297131,0.081252,0.020252,0.03172,0.2569424144986846,-0.24729611224788073,0.0689856767027185
1742920005.6157653,-1.05164,0.072773,-0.29761899999999997,0.087596,0.025863999999999998,0.019275999999999998,0.2569424144986846,-0.24729611224788073,0.0689856767027185
1742920005.6350608,-1.028216,0.07625,-0.293227,0.09516,0.028791999999999998,0.006588,0.24583455130078924,-0.26278865828705056,0.07600116924875767
1742920005.6543596,-1.073539,0.078873,-0.29243399999999997,0.10492,0.022203999999999998,-0.0053679999999999995,0.24583455130078924,-0.26278865828705056,0.07600116924875767
1742920005.6736495,-1.060546,0.055815,-0.277611,0.112728,0.016347999999999998,-0.015616,0.24583455130078924,-0.26278865828705056,0.07600116924875767
1742920005.6929436,-1.031388,0.065819,-0.258396,0.113948,0.008784,-0.019032,0.24583455130078924,-0.26278865828705056,0.07600116924875767
1742920005.7130227,-1.04676,0.078751,-0.240096,0.11468,-0.00244,-0.015127999999999999,0.24583455130078924,-0.26278865828705056,0.07600116924875767
1742920005.7315316,-1.1405779999999999,0.095038,-0.23558199999999999,0.11516799999999999,-0.014884,-0.002928,0.24583455130078924,-0.26278865828705056,0.07600116924875767
1742920005.7508206,-1.1807159999999999,0.094733,-0.24046199999999998,0.11468,-0.015616,0.017568,0.24583455130078924,-0.26278865828705056,0.07600116924875767
1742920005.7701147,-1.1363079999999999,0.057888999999999996,-0.243024,0.111264,-0.013908,0.041968,0.24583455130078924,-0.26278865828705056,0.07600116924875767
1742920005.789413,-1.069147,0.039710999999999996,-0.241133,0.102724,-0.017324,0.060756,0.24583455130078924,-0.26278865828705056,0.07600116924875767
1742920005.8087049,-1.02785,0.038674,-0.238388,0.093208,-0.015127999999999999,0.067832,0.24583455130078924,-0.26278865828705056,0.07600116924875767
1742920005.8279943,-0.988078,0.044347,-0.228689,0.08906,-0.00976,0.05856,0.24583455130078924,-0.26278865828705056,0.07600116924875767
1742920005.847331,-0.9958859999999999,0.044774,-0.223016,0.08418,-0.0034159999999999998,0.04392,0.24817304881613564,-0.24641917567962585,0.10026308097047647
1742920005.8666108,-0.988383,0.056608,-0.224053,0.078812,0.002928,0.032695999999999996,0.24817304881613564,-0.24641917567962585,0.10026308097047647
1742920005.8859174,-0.9724619999999999,0.06447699999999999,-0.223809,0.077592,0.004392,0.022935999999999998,0.24817304881613564,-0.24641917567962585,0.10026308097047647
1742920005.9053004,-0.970876,0.061426999999999995,-0.224297,0.079544,-0.00122,0.014884,0.24817304881613564,-0.24641917567962585,0.10026308097047647
1742920005.925299,-0.960994,0.042212,-0.230153,0.082472,-0.006344,0.005612,0.24817304881613564,-0.24641917567962585,0.10026308097047647
1742920005.9438279,-0.93269,0.02989,-0.233874,0.083204,-0.00976,-0.0026839999999999998,0.24817304881613564,-0.24641917567962585,0.10026308097047647
1742920005.9631112,-0.921283,0.029036,-0.243634,0.083204,-0.005856,-0.00976,0.24817304881613564,-0.24641917567962585,0.10026308097047647
1742920005.9824,-0.927078,0.041907,-0.25437,0.081252,0.00122,-0.012688,0.24817304881613564,-0.24641917567962585,0.10026308097047647
1742920006.0017,-0.891698,0.057828,-0.255285,0.07710399999999999,0.007076,-0.010492,0.24817304881613564,-0.24641917567962585,0.10026308097047647
1742920006.0210032,-0.882487,0.064416,-0.25681,0.072224,0.012931999999999999,-0.0034159999999999998,0.24817304881613564,-0.24641917567962585,0.10026308097047647
1742920006.0402834,-0.8464969999999999,0.053009,-0.257725,0.066368,0.020007999999999998,0.0046359999999999995,0.24817304881613564,-0.24641917567962585,0.10026308097047647
1742920006.0595813,-0.847778,0.045933,-0.271023,0.059047999999999996,0.024888,0.0075639999999999995,0.24554223911137094,-0.2356036246711488,0.10903244665302543
1742920006.0788705,-0.88267,0.033794,-0.29212899999999997,0.052216,0.033672,0.007076,0.24554223911137094,-0.2356036246711488,0.10903244665302543
1742920006.0981698,-1.00589,0.072346,-0.323666,0.046848,0.07198,0.00976,0.24554223911137094,-0.2356036246711488,0.10903244665302543
1742920006.1174629,-0.871019,0.030255999999999998,-0.303475,0.02928,0.075396,0.011467999999999999,0.24554223911137094,-0.2356036246711488,0.10903244665302543
1742920006.1375527,-0.913963,0.049898,-0.303292,0.023667999999999998,0.08174,0.008784,0.24554223911137094,-0.2356036246711488,0.10903244665302543
1742920006.1560512,-0.913963,0.040138,-0.320982,0.019275999999999998,0.085644,-0.000244,0.24554223911137094,-0.2356036246711488,0.10903244665302543
1742920006.175372,-0.901702,0.058072,-0.311771,0.013176,0.068808,-0.005124,0.24554223911137094,-0.2356036246711488,0.10903244665302543
1742920006.194661,-0.879132,0.085827,-0.304573,0.008539999999999999,0.053191999999999996,-0.005124,0.24554223911137094,-0.2356036246711488,0.10903244665302543
1742920006.2139516,-0.885232,0.079056,-0.29524,0.0034159999999999998,0.028791999999999998,-0.000976,0.24554223911137094,-0.2356036246711488,0.10903244665302543
1742920006.2332406,-0.909388,0.076616,-0.28731,-0.005124,0.005856,0.008539999999999999,0.24554223911137094,-0.2356036246711488,0.10903244665302543
1742920006.2525501,-0.9101199999999999,0.085766,-0.326045,-0.011467999999999999,-0.006344,0.016347999999999998,0.22391113709441685,-0.2326805027769658,0.13110201695410698
1742920006.2718418,-1.019615,0.054839,-0.343186,-0.013663999999999999,-0.037087999999999996,0.013663999999999999,0.22391113709441685,-0.2326805027769658,0.13110201695410698
1742920006.2911294,-1.0276669999999999,0.089182,-0.35678899999999997,-0.018788,-0.044652,0.00976,0.22391113709441685,-0.2326805027769658,0.13110201695410698
1742920006.3104315,-1.060363,0.124806,-0.371429,-0.01952,-0.046604,0.013908,0.22391113709441685,-0.2326805027769658,0.13110201695410698
1742920006.3297253,-1.069635,0.10345599999999999,-0.39222999999999997,-0.016592,-0.035136,0.019764,0.22391113709441685,-0.2326805027769658,0.13110201695410698
1742920006.34986,-1.129415,0.058255,-0.409371,-0.017568,-0.022448,0.017811999999999998,0.22391113709441685,-0.2326805027769658,0.13110201695410698
1742920006.3716338,-1.119716,0.02684,-0.40809,-0.020739999999999998,-0.005856,0.005856,0.22391113709441685,-0.2326805027769658,0.13110201695410698
1742920006.3909235,-1.156987,0.000732,-0.388631,-0.026352,0.0034159999999999998,-0.011956,0.22391113709441685,-0.2326805027769658,0.13110201695410698
1742920006.4103885,-1.143506,0.016531,-0.36453599999999997,-0.034159999999999996,0.013908,-0.024644,0.22391113709441685,-0.2326805027769658,0.13110201695410698
1742920006.4296343,-1.126182,0.012139,-0.32878999999999997,-0.041479999999999996,0.017079999999999998,-0.028059999999999998,0.22391113709441685,-0.2326805027769658,0.13110201695410698
1742920006.4489136,-1.118679,0.04209,-0.310978,-0.048799999999999996,0.018788,-0.01952,0.22391113709441685,-0.2326805027769658,0.13110201695410698
1742920006.474181,-1.083543,0.050935,-0.305732,-0.051727999999999996,0.020984,-0.00976,0.2335574393452207,-0.24144986845951477,0.11268634902075417
1742920006.4889774,-1.061461,0.052704,-0.307989,-0.050752,0.023912,-0.0034159999999999998,0.2335574393452207,-0.24144986845951477,0.11268634902075417
1742920006.5082486,-0.979721,0.037759,-0.304512,-0.046604,0.021228,-0.007076,0.2335574393452207,-0.24144986845951477,0.11268634902075417
1742920006.5275087,-0.966484,0.03965,-0.318481,-0.040992,0.024156,-0.015616,0.2335574393452207,-0.24144986845951477,0.11268634902075417
1742920006.5469177,-1.007354,0.006588,-0.313601,-0.034648,0.025131999999999998,-0.021228,0.2335574393452207,-0.24144986845951477,0.11268634902075417
1742920006.5661645,-1.039806,-0.007137,-0.312564,-0.03294,0.048068,-0.030012,0.2335574393452207,-0.24144986845951477,0.11268634902075417
1742920006.589959,-0.980514,0.008905999999999999,-0.315736,-0.030744,0.067588,-0.030255999999999998,0.2335574393452207,-0.24144986845951477,0.11268634902075417
1742920006.6034315,-0.9487329999999999,0.0070149999999999995,-0.305549,-0.020496,0.068564,-0.023912,0.2335574393452207,-0.24144986845951477,0.11268634902075417
1742920006.6227407,-0.88938,0.017324,-0.294691,-0.008296,0.061732,-0.016104,0.2335574393452207,-0.24144986845951477,0.11268634902075417
1742920006.646678,-0.8842559999999999,0.012627,-0.27022999999999997,0.002196,0.042943999999999996,-0.008052,0.2335574393452207,-0.24144986845951477,0.11268634902075417
1742920006.661391,-0.888404,0.003477,-0.236375,0.0060999999999999995,0.026352,0.000244,0.22624963460976322,-0.23706518561824028,0.1305173925752704
1742920006.6806755,-0.775737,0.062525,-0.252906,0.007076,0.018056,0.011224,0.22624963460976322,-0.23706518561824028,0.1305173925752704
1742920006.7034035,-0.7552409999999999,0.062708,-0.252296,0.015372,-0.020496,0.02684,0.22624963460976322,-0.23706518561824028,0.1305173925752704
1742920006.7192817,-0.754204,0.064233,-0.27694,0.024888,-0.051484,0.039528,0.22624963460976322,-0.23706518561824028,0.1305173925752704
1742920006.7385957,-0.765977,0.043615,-0.285785,0.033916,-0.085156,0.041236,0.22624963460976322,-0.23706518561824028,0.1305173925752704
1742920006.7601204,-0.821365,0.037454,-0.301157,0.039284,-0.106872,0.035868,0.22624963460976322,-0.23706518561824028,0.1305173925752704
1742920006.7772396,-0.845704,0.048799999999999996,-0.32147,0.042212,-0.111996,0.033184,0.22624963460976322,-0.23706518561824028,0.1305173925752704
1742920006.7966413,-0.837652,0.054595,-0.340685,0.045384,-0.107848,0.035868,0.22624963460976322,-0.23706518561824028,0.1305173925752704
1742920006.816853,-0.848266,0.058743,-0.361242,0.048312,-0.097356,0.041479999999999996,0.22624963460976322,-0.23706518561824028,0.1305173925752704
1742920006.835197,-0.865041,0.066185,-0.366183,0.05002,-0.083936,0.047824,0.22624963460976322,-0.23706518561824028,0.1305173925752704
1742920006.8545032,-0.881084,0.074359,-0.366183,0.051727999999999996,-0.06588,0.060024,0.22624963460976322,-0.23706518561824028,0.1305173925752704
1742920006.873796,-0.9569679999999999,0.083143,-0.375577,0.054412,-0.046116,0.073444,0.23677287342882197,-0.24700380005846242,0.12204033908213972
1742920006.8931484,-0.990213,0.090585,-0.398208,0.056852,-0.017079999999999998,0.084912,0.23677287342882197,-0.24700380005846242,0.12204033908213972
1742920006.9124439,-1.001437,0.077836,-0.41107899999999997,0.058804,0.010248,0.08906,0.23677287342882197,-0.24700380005846242,0.12204033908213972
1742920006.931793,-0.989298,0.073322,-0.419558,0.064416,0.033916,0.090036,0.23677287342882197,-0.24700380005846242,0.12204033908213972
1742920006.951069,-0.949831,0.084363,-0.406626,0.074664,0.04636,0.089304,0.23677287342882197,-0.24700380005846242,0.12204033908213972
1742920006.9703903,-1.004731,0.102114,-0.402356,0.086864,0.05246,0.084424,0.23677287342882197,-0.24700380005846242,0.12204033908213972
1742920006.9896977,-1.065365,0.098454,-0.401746,0.09881999999999999,0.058804,0.07808,0.23677287342882197,-0.24700380005846242,0.12204033908213972
1742920007.0090196,-1.097024,0.047945999999999996,-0.400648,0.10638399999999999,0.070516,0.061,0.23677287342882197,-0.24700380005846242,0.12204033908213972
1742920007.0283403,-1.066646,0.045384,-0.378871,0.107116,0.066368,0.048312,0.23677287342882197,-0.24700380005846242,0.12204033908213972
1742920007.047633,-1.06079,0.073932,-0.370209,0.110776,0.061732,0.033184,0.23677287342882197,-0.24700380005846242,0.12204033908213972
1742920007.066959,-1.040965,0.13359,-0.363011,0.11223999999999999,0.05734,0.022448,0.23677287342882197,-0.24700380005846242,0.12204033908213972
1742920007.0862956,-0.9365939999999999,0.129808,-0.344528,0.11345999999999999,0.05368,0.020496,0.22128032738965214,-0.24144986845951477,0.14878690441391407
1742920007.105573,-0.9825269999999999,0.138897,-0.330803,0.110288,0.037332,0.037576,0.22128032738965214,-0.24144986845951477,0.14878690441391407
1742920007.1248991,-1.081652,0.118828,-0.342393,0.106872,0.032695999999999996,0.063196,0.22128032738965214,-0.24144986845951477,0.14878690441391407
1742920007.1442006,-1.148264,0.087718,-0.365024,0.098088,0.049532,0.077836,0.22128032738965214,-0.24144986845951477,0.14878690441391407
1742920007.163529,-1.105747,0.068381,-0.361852,0.084424,0.07564,0.068808,0.22128032738965214,-0.24144986845951477,0.14878690441391407
1742920007.182838,-1.007964,0.104249,-0.324825,0.069296,0.087108,0.050263999999999996,0.22128032738965214,-0.24144986845951477,0.14878690441391407
1742920007.2021525,-0.9362889999999999,0.146644,-0.2806,0.05978,0.012688,0.051972,0.22128032738965214,-0.24144986845951477,0.14878690441391407
1742920007.221454,-0.938851,0.14865699999999998,-0.255285,0.055388,0.013663999999999999,0.054168,0.22128032738965214,-0.24144986845951477,0.14878690441391407
1742920007.2407959,-0.973316,0.129198,-0.267973,0.05124,-0.00976,0.04636,0.22128032738965214,-0.24144986845951477,0.14878690441391407
1742920007.260086,-1.013698,0.093452,-0.289384,0.048068,-0.017324,0.034892,0.22128032738965214,-0.24144986845951477,0.14878690441391407
1742920007.2794125,-0.995459,0.075274,-0.303414,0.043676,-0.020984,0.025863999999999998,0.20169541069862612,-0.24028061970184156,0.17334112832505116
1742920007.2987087,-0.925675,0.092781,-0.275903,0.040748,-0.023424,0.018543999999999998,0.20169541069862612,-0.24028061970184156,0.17334112832505116
1742920007.318023,-0.912072,0.118889,-0.270108,0.035136,-0.021716,0.023424,0.20169541069862612,-0.24028061970184156,0.17334112832505116
1742920007.3373172,-0.913292,0.110471,-0.275903,0.028791999999999998,-0.01952,0.033672,0.20169541069862612,-0.24028061970184156,0.17334112832505116
1742920007.3567343,-0.886147,0.090951,-0.278282,0.023912,-0.01952,0.040015999999999996,0.20169541069862612,-0.24028061970184156,0.17334112832505116
1742920007.3759518,-0.870592,0.07033299999999999,-0.258274,0.01952,-0.022935999999999998,0.048068,0.20169541069862612,-0.24028061970184156,0.17334112832505116
1742920007.3952723,-0.899262,0.050447,-0.249978,0.016104,-0.025863999999999998,0.048799999999999996,0.20169541069862612,-0.24028061970184156,0.17334112832505116
1742920007.4146135,-0.8963949999999999,0.06527,-0.256627,0.010248,-0.022448,0.038064,0.20169541069862612,-0.24028061970184156,0.17334112832505116
1742920007.433987,-0.886025,0.087962,-0.26187299999999997,0.002928,-0.023667999999999998,0.028791999999999998,0.20169541069862612,-0.24028061970184156,0.17334112832505116
1742920007.4542093,-0.861259,0.100162,-0.26291,-0.0034159999999999998,-0.025863999999999998,0.021716,0.20169541069862612,-0.24028061970184156,0.17334112832505116
1742920007.4738681,-0.819535,0.094245,-0.258091,-0.00732,-0.030744,0.017079999999999998,0.20169541069862612,-0.24028061970184156,0.17334112832505116
1742920007.4932964,-0.81984,0.08003199999999999,-0.26474,-0.008784,-0.038308,0.012199999999999999,0.18941829874305757,-0.24700380005846242,0.1740719087985969
1742920007.5129511,-0.791414,0.067771,-0.290604,-0.009028,-0.038796,0.0017079999999999999,0.18941829874305757,-0.24700380005846242,0.1740719087985969
1742920007.532734,-0.786656,0.089182,-0.312076,-0.009028,-0.03904,-0.008296,0.18941829874305757,-0.24700380005846242,0.1740719087985969
1742920007.5513768,-0.804102,0.11529,-0.339099,-0.005124,-0.033916,-0.010248,0.18941829874305757,-0.24700380005846242,0.1740719087985969
1742920007.5738258,-0.836737,0.109434,-0.36636599999999997,0.000244,-0.026352,-0.008539999999999999,0.18941829874305757,-0.24700380005846242,0.1740719087985969
1742920007.5883589,-0.870592,0.084851,-0.39894,0.004148,-0.014152,-0.013908,0.18941829874305757,-0.24700380005846242,0.1740719087985969
1742920007.60767,-0.898957,0.056729999999999996,-0.417728,0.0053679999999999995,-0.005124,-0.02196,0.18941829874305757,-0.24700380005846242,0.1740719087985969
1742920007.6295385,-0.931165,0.068991,-0.426817,0.00366,0.00366,-0.029036,0.18941829874305757,-0.24700380005846242,0.1740719087985969
1742920007.646289,-0.94611,0.099186,-0.427427,0.0017079999999999999,0.013176,-0.027572,0.18941829874305757,-0.24700380005846242,0.1740719087985969
1742920007.6656039,-0.959164,0.140239,-0.425475,0.000488,0.020496,-0.017811999999999998,0.18941829874305757,-0.24700380005846242,0.1740719087985969
1742920007.6865933,-1.015284,0.165371,-0.42151,0.000244,0.025863999999999998,-0.006344,0.18941829874305757,-0.23735749780765858,0.18035662087109033
1742920007.704855,-1.054568,0.144448,-0.423828,-0.000732,0.032695999999999996,0.000976,0.19818766442560654,-0.23735749780765858,0.18035662087109033
1742920007.7241604,-1.064145,0.087718,-0.418948,-0.0060999999999999995,0.034892,-0.001464,0.19818766442560654,-0.23735749780765858,0.18035662087109033
1742920007.7434697,-1.095926,0.048556,-0.42022899999999996,-0.01586,0.027816,-0.017811999999999998,0.19818766442560654,-0.23735749780765858,0.18035662087109033
1742920007.7628,-1.087203,0.050996,-0.38173799999999997,-0.029036,0.0075639999999999995,-0.037576,0.19818766442560654,-0.23735749780765858,0.18035662087109033
1742920007.7821333,-1.160952,0.09089,-0.357948,-0.04026,-0.011224,-0.049532,0.19818766442560654,-0.23735749780765858,0.18035662087109033
1742920007.801424,-1.206458,0.123098,-0.364414,-0.048312,-0.016592,-0.048556,0.19818766442560654,-0.23735749780765858,0.18035662087109033
1742920007.8208137,-1.117947,0.105347,-0.384117,-0.050752,-0.011467999999999999,-0.042212,0.19818766442560654,-0.23735749780765858,0.18035662087109033
1742920007.8400662,-0.922442,0.064843,-0.395219,-0.05002,-0.007808,-0.036844,0.19818766442560654,-0.23735749780765858,0.18035662087109033
1742920007.8594105,-0.882853,0.048678,-0.402539,-0.051972,-0.020496,-0.034404,0.19818766442560654,-0.23735749780765858,0.18035662087109033
1742920007.8786998,-0.940986,0.07417599999999999,-0.403088,-0.05734,-0.032208,-0.02928,0.19818766442560654,-0.23735749780765858,0.18035662087109033
1742920007.898041,-1.036268,0.11901099999999999,-0.394426,-0.061,-0.028548,-0.018543999999999998,0.2119263373282666,-0.2341420637240573,0.16515638702133878
1742920007.9182136,-1.069269,0.13694499999999998,-0.383141,-0.057096,-0.003904,-0.00732,0.2119263373282666,-0.2341420637240573,0.16515638702133878
1742920007.93674,-1.013393,0.102785,-0.360022,-0.049288,0.026595999999999998,-0.00122,0.2119263373282666,-0.2341420637240573,0.16515638702133878
1742920007.956029,-0.952576,0.072651,-0.330437,-0.043432,0.046848,0.001464,0.2119263373282666,-0.2341420637240573,0.16515638702133878
1742920007.9753325,-0.897676,0.072895,-0.30195,-0.040748,0.053924,0.0034159999999999998,0.2119263373282666,-0.2341420637240573,0.16515638702133878
1742920007.994684,-0.85217,0.072651,-0.277367,-0.038796,0.051972,0.005124,0.2119263373282666,-0.2341420637240573,0.16515638702133878
1742920008.0140085,-0.815631,0.070455,-0.265594,-0.039528,0.039772,0.0060999999999999995,0.2119263373282666,-0.2341420637240573,0.16515638702133878
1742920008.0333285,-0.821975,0.04758,-0.260287,-0.041968,0.017568,0.00488,0.2119263373282666,-0.2341420637240573,0.16515638702133878
1742920008.0526443,-0.7911699999999999,0.034159999999999996,-0.268034,-0.04392,-0.001464,0.003172,0.2119263373282666,-0.2341420637240573,0.16515638702133878
1742920008.071969,-0.7838499999999999,0.038003,-0.27511,-0.044652,-0.022448,-0.0026839999999999998,0.2119263373282666,-0.2341420637240573,0.16515638702133878
1742920008.0913155,-0.81862,0.053741,-0.28914,-0.044164,-0.038308,-0.009028,0.2119263373282666,-0.2341420637240573,0.16515638702133878
1742920008.1106257,-0.850828,0.065697,-0.305732,-0.04392,-0.046116,-0.011224,0.21543408360128619,-0.2502192341420637,0.14790996784565916
1742920008.1299734,-0.8568669999999999,0.057888999999999996,-0.326899,-0.044407999999999996,-0.048312,-0.011224,0.21543408360128619,-0.2502192341420637,0.14790996784565916
1742920008.1492803,-0.9119499999999999,0.069174,-0.33958699999999997,-0.045384,-0.05002,-0.01098,0.21543408360128619,-0.2502192341420637,0.14790996784565916
1742920008.16858,-0.904996,0.046238,-0.361486,-0.039772,-0.035136,-0.014395999999999999,0.21543408360128619,-0.2502192341420637,0.14790996784565916
1742920008.1879137,-0.891881,0.078629,-0.375394,-0.03904,-0.024644,-0.012444,0.21543408360128619,-0.2502192341420637,0.14790996784565916
1742920008.2072353,-0.906826,0.10797,-0.37868799999999997,-0.033428,-0.013908,-0.008784,0.21543408360128619,-0.2502192341420637,0.14790996784565916
1742920008.2265444,-0.907558,0.096746,-0.379786,-0.024156,-0.000244,-0.000488,0.21543408360128619,-0.2502192341420637,0.14790996784565916
1742920008.2459145,-0.935313,0.107848,-0.379786,-0.016592,0.003904,0.005612,0.21543408360128619,-0.2502192341420637,0.14790996784565916
1742920008.2652285,-0.937692,0.083021,-0.379664,-0.0053679999999999995,0.009516,0.002196,0.21543408360128619,-0.2502192341420637,0.14790996784565916
1742920008.284538,-0.97783,0.066612,-0.376004,0.001952,0.008052,-0.000488,0.21543408360128619,-0.2502192341420637,0.14790996784565916
1742920008.3038583,-1.016199,0.062891,-0.368928,0.00732,0.0060999999999999995,0.0017079999999999999,0.2119263373282666,-0.2548962291727565,0.14820228003507746
1742920008.3232012,-1.032791,0.06508699999999999,-0.36453599999999997,0.010735999999999999,0.00488,0.0053679999999999995,0.2119263373282666,-0.2548962291727565,0.14820228003507746
1742920008.3425012,-0.98515,0.056974,-0.35495899999999997,0.010492,-0.00244,-0.0046359999999999995,0.2119263373282666,-0.2548962291727565,0.14820228003507746
1742920008.3618813,-0.9651419999999999,0.041174999999999996,-0.342149,0.007808,-0.056119999999999996,-0.023912,0.2119263373282666,-0.2548962291727565,0.14820228003507746
1742920008.3812299,-1.023214,0.036356,-0.33733,0.000732,-0.076616,-0.037576,0.2119263373282666,-0.2548962291727565,0.14820228003507746
1742920008.4004736,-1.085007,0.0366,-0.35251899999999997,-0.000488,-0.08003199999999999,-0.050508,0.2119263373282666,-0.2548962291727565,0.14820228003507746
1742920008.4198682,-1.124779,0.051667,-0.379725,-0.00244,-0.066856,-0.06539199999999999,0.2119263373282666,-0.2548962291727565,0.14820228003507746
1742920008.4401195,-1.090009,0.049288,-0.389912,-0.008296,-0.05124,-0.063928,0.2119263373282666,-0.2548962291727565,0.14820228003507746
1742920008.459542,-1.0918999999999999,0.141764,-0.368562,-0.0017079999999999999,-0.020007999999999998,-0.045628,0.2119263373282666,-0.2548962291727565,0.14820228003507746
1742920008.4789264,-1.022726,0.163114,-0.36417,0.0068319999999999995,0.002928,-0.018543999999999998,0.2119263373282666,-0.2548962291727565,0.14820228003507746
1742920008.4974115,-0.979355,0.17568,-0.357826,0.015127999999999999,0.017568,0.0034159999999999998,0.2119263373282666,-0.2548962291727565,0.14820228003507746
1742920008.5170093,-0.993934,0.145546,-0.343125,0.02196,0.030255999999999998,0.013908,0.22478807366267173,-0.23648056123940367,0.14396375328851213
1742920008.536096,-1.034011,0.126575,-0.328912,0.022692,0.039284,0.012444,0.22478807366267173,-0.23648056123940367,0.14396375328851213
1742920008.554419,-1.03212,0.112179,-0.312442,0.020984,0.049532,0.001464,0.22478807366267173,-0.23648056123940367,0.14396375328851213
1742920008.5737307,-1.012356,0.110959,-0.287493,0.016347999999999998,0.053924,-0.00732,0.22478807366267173,-0.23648056123940367,0.14396375328851213
1742920008.5936253,-0.999912,0.11608299999999999,-0.260775,0.009028,0.05246,-0.008296,0.22478807366267173,-0.23648056123940367,0.14396375328851213
1742920008.612928,-0.96441,0.116205,-0.24851399999999998,0.000732,0.049044,-0.006344,0.22478807366267173,-0.23648056123940367,0.14396375328851213
1742920008.6322434,-0.9088999999999999,0.109068,-0.240523,-0.007808,0.039284,-0.0046359999999999995,0.22478807366267173,-0.23648056123940367,0.14396375328851213
1742920008.6515486,-0.891332,0.110959,-0.242231,-0.01586,0.024644,-0.0075639999999999995,0.22478807366267173,-0.23648056123940367,0.14396375328851213
1742920008.6708536,-0.85705,0.106567,-0.243695,-0.020496,0.012444,-0.011467999999999999,0.22478807366267173,-0.23648056123940367,0.14396375328851213
1742920008.6906147,-0.830454,0.103883,-0.249002,-0.024399999999999998,0.003172,-0.011956,0.22478807366267173,-0.23648056123940367,0.14396375328851213
1742920008.710239,-0.811178,0.118218,-0.257237,-0.028791999999999998,-0.00488,-0.008539999999999999,0.22478807366267173,-0.23648056123940367,0.14396375328851213
1742920008.72955,-0.804895,0.127246,-0.26900999999999997,-0.030744,-0.009271999999999999,-0.0068319999999999995,0.21981876644256065,-0.24028061970184156,0.15390236772873428
1742920008.74886,-0.800503,0.123769,-0.28163699999999997,-0.032208,-0.010735999999999999,-0.010003999999999999,0.21981876644256065,-0.24028061970184156,0.15390236772873428
1742920008.7681947,-0.807518,0.120597,-0.29700899999999997,-0.033916,-0.012199999999999999,-0.018056,0.21981876644256065,-0.24028061970184156,0.15390236772873428
1742920008.7875574,-0.812703,0.116022,-0.314455,-0.032452,-0.011956,-0.027327999999999998,0.21981876644256065,-0.24028061970184156,0.15390236772873428
1742920008.8060586,-0.820206,0.118767,-0.32970499999999997,-0.030012,-0.012444,-0.033672,0.21981876644256065,-0.24028061970184156,0.15390236772873428
1742920008.8253646,-0.844118,0.125721,-0.34080699999999997,-0.030744,-0.015127999999999999,-0.035136,0.21981876644256065,-0.24028061970184156,0.15390236772873428
1742920008.844675,-0.861991,0.10729899999999999,-0.345504,-0.034404,-0.01952,-0.031964,0.21981876644256065,-0.24028061970184156,0.15390236772873428
1742920008.8640425,-0.910181,0.100162,-0.360754,-0.039528,-0.020739999999999998,-0.029523999999999998,0.21981876644256065,-0.24028061970184156,0.15390236772873428
1742920008.883344,-0.9107299999999999,0.086437,-0.36972099999999997,-0.042456,-0.015127999999999999,-0.032208,0.21981876644256065,-0.24028061970184156,0.15390236772873428
1742920008.902632,-0.936106,0.083021,-0.371429,-0.049532,-0.011467999999999999,-0.0366,0.21981876644256065,-0.24028061970184156,0.15390236772873428
1742920008.9226675,-0.992104,0.08265499999999999,-0.364963,-0.060756,-0.012688,-0.034404,0.22244957614732536,-0.24349605378544284,0.1356328558900906
1742920008.9413455,-1.024861,0.082533,-0.357338,-0.07198,-0.01098,-0.021228,0.22244957614732536,-0.24349605378544284,0.1356328558900906
1742920008.960616,-1.031266,0.08204499999999999,-0.347517,-0.080276,-0.010248,-0.005124,0.22244957614732536,-0.24349605378544284,0.1356328558900906
1742920008.9799562,-1.012722,0.080093,-0.351726,-0.084668,-0.011712,0.005612,0.22244957614732536,-0.24349605378544284,0.1356328558900906
1742920008.9992902,-0.9937509999999999,0.074542,-0.361974,-0.086132,-0.018543999999999998,0.00976,0.22244957614732536,-0.24349605378544284,0.1356328558900906
1742920009.0185833,-1.034011,0.032452,-0.35739899999999997,-0.088328,-0.030255999999999998,0.0046359999999999995,0.22244957614732536,-0.24349605378544284,0.1356328558900906
1742920009.0379019,-1.116422,0.008905999999999999,-0.35739899999999997,-0.09394,-0.038308,-0.006344,0.22244957614732536,-0.24349605378544284,0.1356328558900906
1742920009.0572205,-1.1372229999999999,0.015127999999999999,-0.350567,-0.098576,-0.041724,-0.014884,0.22244957614732536,-0.24349605378544284,0.1356328558900906
1742920009.0765057,-1.082323,0.029463,-0.361242,-0.09638,-0.03538,-0.015372,0.22244957614732536,-0.24349605378544284,0.1356328558900906
1742920009.0958476,-1.00772,0.025315,-0.37698,-0.089304,-0.030012,-0.010003999999999999,0.22244957614732536,-0.24349605378544284,0.1356328558900906
1742920009.1151402,-0.961116,0.004758,-0.380457,-0.08003199999999999,-0.032695999999999996,-0.0060999999999999995,0.22244957614732536,-0.24349605378544284,0.1356328558900906
1742920009.134456,-0.929701,-0.019947,-0.3782,-0.068808,-0.033428,-0.0068319999999999995,0.23911137094416837,-0.25051154633148204,0.1065477930429699
1742920009.1537828,-0.94367,-0.004758,-0.364963,-0.060268,-0.033916,-0.007076,0.23911137094416837,-0.25051154633148204,0.1065477930429699
1742920009.1731033,-0.960811,0.010369999999999999,-0.349713,-0.052948,-0.030012,-0.010492,0.23911137094416837,-0.25051154633148204,0.1065477930429699
1742920009.1924326,-0.976183,0.017324,-0.33000999999999997,-0.04636,-0.030012,-0.02196,0.23911137094416837,-0.25051154633148204,0.1065477930429699
1742920009.2117324,-0.910669,0.047214,-0.30622,-0.037332,-0.03294,-0.038308,0.23911137094416837,-0.25051154633148204,0.1065477930429699
1742920009.2310414,-0.890478,0.025193,-0.244305,-0.026352,-0.055144,-0.042943999999999996,0.23911137094416837,-0.25051154633148204,0.1065477930429699
1742920009.2503567,-0.96624,0.012444,-0.24973399999999998,-0.025863999999999998,-0.060511999999999996,-0.039528,0.23911137094416837,-0.25051154633148204,0.1065477930429699
1742920009.2696807,-0.979233,0.038735,-0.28426,-0.027327999999999998,-0.050996,-0.026595999999999998,0.23911137094416837,-0.25051154633148204,0.1065477930429699
1742920009.289003,-0.993812,0.028182,-0.302133,-0.026352,-0.040992,-0.021716,0.23911137094416837,-0.25051154633148204,0.1065477930429699
1742920009.3083146,-0.982649,0.028791999999999998,-0.31055099999999997,-0.028548,-0.020007999999999998,-0.026595999999999998,0.23911137094416837,-0.25051154633148204,0.1065477930429699
1742920009.3276296,-0.871934,0.034709,-0.294447,-0.029036,0.0060999999999999995,-0.034404,0.23911137094416837,-0.25051154633148204,0.1065477930429699
1742920009.3469512,-0.8161189999999999,0.054351,-0.274744,-0.02928,0.02196,-0.036112,0.24904998538439052,-0.24963460976322713,0.092955276235019
1742920009.3662863,-0.8097139999999999,0.06709999999999999,-0.258152,-0.027816,0.030012,-0.02928,0.24904998538439052,-0.24963460976322713,0.092955276235019
1742920009.3856256,-0.8352729999999999,0.065636,-0.24461,-0.02562,0.030987999999999998,-0.012931999999999999,0.24904998538439052,-0.24963460976322713,0.092955276235019
1742920009.4049423,-0.833199,0.061915,-0.242109,-0.021471999999999998,0.030987999999999998,0.0017079999999999999,0.24904998538439052,-0.24963460976322713,0.092955276235019
1742920009.4252641,-0.7546309999999999,0.065819,-0.230702,-0.013908,0.027327999999999998,0.011467999999999999,0.24904998538439052,-0.24963460976322713,0.092955276235019
1742920009.4448125,-0.698145,0.076006,-0.223687,-0.002196,0.013176,0.012199999999999999,0.24904998538439052,-0.24963460976322713,0.092955276235019
1742920009.4642386,-0.7138829999999999,0.084851,-0.23460599999999998,0.011956,-0.008296,-0.058804,0.24904998538439052,-0.24963460976322713,0.092955276235019
1742920009.48321,-0.872544,0.075579,-0.29304399999999997,0.024644,-0.022935999999999998,-0.000488,0.24904998538439052,-0.24963460976322713,0.092955276235019
1742920009.502925,-1.032669,0.082533,-0.365695,0.034404,0.013663999999999999,-0.00244,0.24904998538439052,-0.24963460976322713,0.092955276235019
1742920009.5219278,-1.136735,0.10498099999999999,-0.399428,0.110288,0.045628,-0.0017079999999999999,0.24904998538439052,-0.24963460976322713,0.092955276235019
1742920009.5438297,-1.244766,0.097722,-0.341539,0.079056,0.066368,0.008296,0.23823443437591346,-0.24583455130078924,0.10260157848582285
1742920009.5594864,-1.244766,0.097722,-0.341539,0.079056,0.071004,0.016347999999999998,0.23823443437591346,-0.24583455130078924,0.10260157848582285
1742920009.578798,-1.290821,0.085339,-0.27755,0.088572,0.061488,0.017079999999999998,0.23823443437591346,-0.24583455130078924,0.10260157848582285
1742920009.6005445,-1.372927,0.040992,-0.215086,0.081008,0.033916,0.020984,0.23823443437591346,-0.24583455130078924,0.10260157848582285
1742920009.6174152,-1.372927,0.040992,-0.215086,0.071736,0.008784,0.012444,0.23823443437591346,-0.24583455130078924,0.10260157848582285
1742920009.6367285,-1.241411,0.00671,-0.25851799999999997,0.06539199999999999,-0.011956,-0.0183,0.23823443437591346,-0.24583455130078924,0.10260157848582285
1742920009.657245,-0.9566629999999999,0.038979,-0.254736,0.063196,-0.0366,-0.051727999999999996,0.23823443437591346,-0.24583455130078924,0.10260157848582285
1742920009.6753767,-0.9566629999999999,0.06039,-0.244976,0.060756,-0.057828,-0.056608,0.23823443437591346,-0.24583455130078924,0.10260157848582285
1742920009.694669,-0.98881,0.095953,-0.249795,0.059292,-0.06539199999999999,-0.036112,0.23823443437591346,-0.24583455130078924,0.10260157848582285
1742920009.713991,-0.995642,0.108763,-0.269254,0.062708,-0.051484,-0.013663999999999999,0.23823443437591346,-0.24583455130078924,0.10260157848582285
1742920009.733291,-0.9964959999999999,0.087718,-0.282308,0.066368,-0.025131999999999998,-0.003172,0.23823443437591346,-0.24583455130078924,0.10260157848582285
1742920009.7525969,-1.061949,0.060451,-0.277977,0.060024,0.004392,0.01098,0.24320374159602456,-0.22888044431452792,0.10932475884244373
1742920009.771898,-1.064023,0.041174999999999996,-0.268339,0.049044,0.043432,0.026595999999999998,0.24320374159602456,-0.22888044431452792,0.10932475884244373
1742920009.791207,-0.953491,0.030866,-0.24827,0.040504,0.084912,0.033184,0.24320374159602456,-0.22888044431452792,0.10932475884244373
1742920009.8109972,-0.829661,0.020435,-0.222223,0.034648,0.109068,0.028791999999999998,0.24320374159602456,-0.22888044431452792,0.10932475884244373
1742920009.8305783,-0.763537,-0.009211,-0.190991,0.026352,0.10736,0.02318,0.24320374159602456,-0.22888044431452792,0.10932475884244373
1742920009.8499196,-0.766038,0.00549,-0.181536,0.01342,0.096624,0.03172,0.24320374159602456,-0.22888044431452792,0.10932475884244373
1742920009.8692634,-0.752618,-0.014761999999999999,-0.18379299999999998,0.0075639999999999995,0.086132,0.040015999999999996,0.24320374159602456,-0.22888044431452792,0.10932475884244373
1742920009.888584,-0.7391369999999999,-0.017079999999999998,-0.206973,0.005124,0.07124799999999999,0.036112,0.24320374159602456,-0.22888044431452792,0.10932475884244373
1742920009.9079077,-0.6606299999999999,-0.018971,-0.234057,0.013176,0.033672,0.016836,0.24320374159602456,-0.22888044431452792,0.10932475884244373
1742920009.9264398,-0.752313,-0.079056,-0.205753,0.01098,-0.009028,-0.014884,0.24320374159602456,-0.22888044431452792,0.10932475884244373
1742920009.9458196,-0.743895,0.008845,-0.23680199999999998,0.0026839999999999998,-0.006344,-0.039528,0.22537269804150833,-0.22595732242034494,0.1261327097339959
1742920009.9651022,-0.802455,0.066063,-0.287981,-0.003904,-0.03172,-0.049776,0.22537269804150833,-0.22595732242034494,0.1261327097339959
1742920009.9843926,-0.894992,0.148596,-0.325923,-0.0034159999999999998,-0.056608,-0.043188,0.22537269804150833,-0.22595732242034494,0.1261327097339959
1742920010.0037224,-0.925248,0.090951,-0.357216,0.020739999999999998,-0.06588,-0.027327999999999998,0.22537269804150833,-0.22595732242034494,0.1261327097339959
1742920010.0230129,-0.969168,0.019642,-0.393084,0.031232,-0.08418,-0.014884,0.22537269804150833,-0.22595732242034494,0.1261327097339959
1742920010.0423205,-1.071282,0.027023,-0.43255099999999996,0.028059999999999998,-0.09467199999999999,-0.016347999999999998,0.22537269804150833,-0.22595732242034494,0.1261327097339959
1742920010.0616329,-1.066524,0.035013999999999997,-0.449021,0.026108,-0.085644,-0.020496,0.22537269804150833,-0.22595732242034494,0.1261327097339959
1742920010.0809488,-1.100928,0.017446,-0.460794,0.020984,-0.072956,-0.026595999999999998,0.22537269804150833,-0.22595732242034494,0.1261327097339959
1742920010.100254,-1.139541,0.033977,-0.46238,0.009271999999999999,-0.057828,-0.023424,0.22537269804150833,-0.22595732242034494,0.1261327097339959
1742920010.1195667,-1.167418,0.089914,-0.463661,-0.00122,-0.03538,-0.010003999999999999,0.22537269804150833,-0.22595732242034494,0.1261327097339959
1742920010.1388626,-1.151009,0.099308,-0.447801,-0.005124,-0.014395999999999999,0.005124,0.22537269804150833,-0.22595732242034494,0.1261327097339959
1742920010.1581948,-1.1651,0.040138,-0.40748,-0.008784,-0.00366,0.015616,0.24144986845951477,-0.2098801520023385,0.11984799766150249
1742920010.1775014,-1.241838,-0.0070149999999999995,-0.375577,-0.021228,0.007076,0.024156,0.24144986845951477,-0.2098801520023385,0.11984799766150249
1742920010.1968057,-1.26941,0.0042699999999999995,-0.344101,-0.032695999999999996,0.027327999999999998,0.02928,0.24144986845951477,-0.2098801520023385,0.11984799766150249
1742920010.2161136,-1.158512,0.019886,-0.309209,-0.03294,0.049288,0.026108,0.24144986845951477,-0.2098801520023385,0.11984799766150249
1742920010.235451,-1.083177,0.015372,-0.27205999999999997,-0.0305,0.048556,0.01952,0.24144986845951477,-0.2098801520023385,0.11984799766150249
1742920010.2547314,-1.045235,-0.013297999999999999,-0.240889,-0.028304,0.038796,0.016836,0.24144986845951477,-0.2098801520023385,0.11984799766150249
1742920010.2740548,-1.043161,-0.035013999999999997,-0.21551299999999998,-0.028059999999999998,0.026595999999999998,0.017079999999999998,0.24144986845951477,-0.2098801520023385,0.11984799766150249
1742920010.2933629,-1.0444419999999999,-0.048922,-0.20984,-0.027816,0.014884,0.014395999999999999,0.24144986845951477,-0.2098801520023385,0.11984799766150249
1742920010.31268,-1.044991,-0.050263999999999996,-0.22204,-0.027572,-0.001464,0.010735999999999999,0.24144986845951477,-0.2098801520023385,0.11984799766150249
1742920010.331987,-1.122766,-0.063379,-0.228384,-0.02684,-0.017079999999999998,0.0060999999999999995,0.24144986845951477,-0.2098801520023385,0.11984799766150249
1742920010.3512926,-1.07177,-0.113948,-0.230702,-0.029036,-0.007076,-0.0026839999999999998,0.24144986845951477,-0.2098801520023385,0.11984799766150249
1742920010.3706505,-1.021018,-0.048312,-0.231739,-0.039284,0.000732,-0.008539999999999999,0.2335574393452207,-0.22712657117801813,0.1258403975445776
1742920010.3899715,-0.935923,0.00671,-0.23155599999999998,-0.043676,0.00732,-0.017568,0.2335574393452207,-0.22712657117801813,0.1258403975445776
1742920010.409282,-0.861564,-0.0026839999999999998,-0.233813,-0.040015999999999996,0.014395999999999999,-0.029523999999999998,0.2335574393452207,-0.22712657117801813,0.1258403975445776
1742920010.428573,-0.82899,-0.049104999999999996,-0.230092,-0.040504,0.019275999999999998,-0.044407999999999996,0.2335574393452207,-0.22712657117801813,0.1258403975445776
1742920010.44798,-0.82899,-0.001098,-0.23186099999999998,-0.046116,0.028059999999999998,-0.047335999999999996,0.2335574393452207,-0.22712657117801813,0.1258403975445776
1742920010.4681983,-0.821426,0.014761999999999999,-0.241926,-0.046604,0.048068,-0.046848,0.2335574393452207,-0.22712657117801813,0.1258403975445776
1742920010.4874985,-0.765489,0.017446,-0.246989,-0.045628,0.06709999999999999,-0.037087999999999996,0.2335574393452207,-0.22712657117801813,0.1258403975445776
1742920010.5069313,-0.717909,-0.012749,-0.269803,-0.040504,0.07710399999999999,-0.032208,0.2335574393452207,-0.22712657117801813,0.1258403975445776
1742920010.5262787,-0.721874,-0.030805,-0.285236,-0.037087999999999996,0.068808,-0.028791999999999998,0.2335574393452207,-0.22712657117801813,0.1258403975445776
1742920010.545728,-0.770125,0.007503,-0.311832,-0.037087999999999996,0.058804,-0.021471999999999998,0.2335574393452207,-0.22712657117801813,0.1258403975445776
1742920010.565054,-0.81374,0.052337999999999996,-0.336415,-0.02684,0.044652,-0.009271999999999999,0.2361882490499854,-0.22303420052616194,0.13621748026892722
1742920010.583799,-0.857599,0.042943999999999996,-0.361059,-0.0075639999999999995,0.028059999999999998,0.0,0.2361882490499854,-0.22303420052616194,0.13621748026892722
1742920010.6024728,-0.987468,0.021655,-0.40028199999999997,0.008539999999999999,0.012688,0.009028,0.2361882490499854,-0.22303420052616194,0.13621748026892722
1742920010.621787,-1.063413,0.031293,-0.427488,0.020252,0.015372,0.027327999999999998,0.2361882490499854,-0.22303420052616194,0.13621748026892722
1742920010.641102,-1.058472,0.054960999999999996,-0.446459,0.034892,0.028304,0.05002,0.2361882490499854,-0.22303420052616194,0.13621748026892722
1742920010.6604216,-1.101965,0.06344,-0.435174,0.049776,0.02928,0.065636,0.2361882490499854,-0.22303420052616194,0.13621748026892722
1742920010.6797361,-1.048163,0.028426,-0.412116,0.058316,0.0366,0.068564,0.2361882490499854,-0.22303420052616194,0.13621748026892722
1742920010.6990466,-1.082201,0.050386,-0.399001,0.059536,0.043676,0.061732,0.2361882490499854,-0.22303420052616194,0.13621748026892722
1742920010.71837,-1.055727,0.062159,-0.390644,0.060268,0.05856,0.053191999999999996,0.2361882490499854,-0.22303420052616194,0.13621748026892722
1742920010.7376904,-1.021262,0.042517,-0.372954,0.060511999999999996,0.061488,0.055388,0.2361882490499854,-0.22303420052616194,0.13621748026892722
1742920010.757005,-0.990335,0.035136,-0.35739899999999997,0.054655999999999996,0.028791999999999998,0.056364,0.2361882490499854,-0.22303420052616194,0.13621748026892722
1742920010.776319,-0.98698,0.035746,-0.338672,0.050263999999999996,0.009028,0.055144,0.2098801520023385,-0.22332651271558024,0.14937152879275065
1742920010.7956383,-1.031205,0.039345,-0.343735,0.048312,-0.0026839999999999998,0.052216,0.2098801520023385,-0.22332651271558024,0.14937152879275065
1742920010.8149724,-1.087508,0.022997,-0.359107,0.043676,-0.00122,0.052704,0.2098801520023385,-0.22332651271558024,0.14937152879275065
1742920010.8342695,-1.04615,-0.009516,-0.38795999999999997,0.038308,0.000244,0.05368,0.2098801520023385,-0.22332651271558024,0.14937152879275065
1742920010.8535914,-1.054568,-0.023546,-0.362035,0.035868,0.007076,0.046848,0.2098801520023385,-0.22332651271558024,0.14937152879275065
1742920010.8729365,-0.987285,0.016774999999999998,-0.344345,0.036356,0.00976,0.035136,0.2098801520023385,-0.22332651271558024,0.14937152879275065
1742920010.8922586,-0.907253,0.075152,-0.307867,0.040504,0.003172,0.038064,0.2098801520023385,-0.22332651271558024,0.14937152879275065
1742920010.9115548,-0.923418,0.027389,-0.290299,0.042456,-0.003904,0.045384,0.2098801520023385,-0.22332651271558024,0.14937152879275065
1742920010.930936,-1.016016,-0.04514,-0.266753,0.041479999999999996,-0.022692,0.056119999999999996,0.2098801520023385,-0.22332651271558024,0.14937152879275065
1742920010.9502618,-1.027118,-0.087108,-0.252601,0.032695999999999996,-0.033916,0.05856,0.2098801520023385,-0.22332651271558024,0.14937152879275065
1742920010.9695532,-0.9362889999999999,-0.008296,-0.229299,0.02196,-0.044407999999999996,0.03782,0.2098801520023385,-0.22332651271558024,0.1867874890382929
1742920010.988862,-0.75701,0.049409999999999996,-0.183976,0.018056,-0.07564,0.015372,0.2101724641917568,-0.2361882490499854,0.15361005553931598
1742920011.008169,-0.705587,0.063623,-0.17507,0.01952,-0.1098,-0.003172,0.2101724641917568,-0.2361882490499854,0.15361005553931598
1742920011.027494,-0.705831,0.033794,-0.19428499999999999,0.02196,-0.133468,-0.017079999999999998,0.2101724641917568,-0.2361882490499854,0.15361005553931598
1742920011.0468361,-0.755363,-0.0051849999999999995,-0.22783499999999998,0.022203999999999998,-0.146644,-0.0305,0.2101724641917568,-0.2361882490499854,0.15361005553931598
1742920011.066135,-0.786778,0.003172,-0.26156799999999997,0.022448,-0.147376,-0.041479999999999996,0.2101724641917568,-0.2361882490499854,0.15361005553931598
1742920011.0854843,-0.779214,0.008845,-0.269742,0.024399999999999998,-0.141764,-0.048799999999999996,0.2101724641917568,-0.2361882490499854,0.15361005553931598
1742920011.1047814,-0.815082,-0.021838,-0.272243,0.022203999999999998,-0.12932,-0.05368,0.2101724641917568,-0.2361882490499854,0.15361005553931598
1742920011.1241179,-0.820816,-0.012199999999999999,-0.294447,0.011956,-0.103212,-0.059047999999999996,0.2101724641917568,-0.2361882490499854,0.15361005553931598
1742920011.143436,-0.864614,0.063257,-0.34660199999999997,0.005124,-0.079788,-0.062464,0.2101724641917568,-0.2361882490499854,0.15361005553931598
1742920011.1627407,-0.932263,0.071614,-0.372893,0.005856,-0.064416,-0.06539199999999999,0.2101724641917568,-0.2361882490499854,0.15361005553931598
1742920011.1821,-0.955321,0.106506,-0.407785,-0.000244,-0.038064,-0.056119999999999996,0.2537269804150833,-0.21455714703303128,0.12072493422975739
1742920011.201411,-1.052738,0.087474,-0.437065,-0.007076,-0.012199999999999999,-0.040504,0.2537269804150833,-0.21455714703303128,0.12072493422975739
1742920011.2207456,-1.097817,0.069296,-0.46921199999999996,-0.012199999999999999,0.026595999999999998,-0.018788,0.2537269804150833,-0.21455714703303128,0.12072493422975739
1742920011.2400346,-1.157841,0.048861,-0.47085899999999997,-0.023667999999999998,0.057828,0.00122,0.2537269804150833,-0.21455714703303128,0.12072493422975739
1742920011.2593448,-1.218536,0.0068319999999999995,-0.437492,-0.047824,0.088328,0.022448,0.2537269804150833,-0.21455714703303128,0.12072493422975739
1742920011.2786603,-1.189073,0.038186,-0.406321,-0.078324,0.111264,0.037576,0.2537269804150833,-0.21455714703303128,0.12072493422975739
1742920011.2979815,-1.157841,0.069601,-0.377956,-0.096136,0.111752,0.04026,0.2537269804150833,-0.21455714703303128,0.12072493422975739
1742920011.3172982,-1.095011,0.059902,-0.33855,-0.102724,0.086864,0.03782,0.2537269804150833,-0.21455714703303128,0.12072493422975739
1742920011.33663,-1.149667,0.04575,-0.32848499999999997,-0.105896,0.053924,0.026595999999999998,0.2537269804150833,-0.21455714703303128,0.12072493422975739
1742920011.3559422,-1.310829,0.037637,-0.31598,-0.10638399999999999,0.020984,0.009028,0.2537269804150833,-0.21455714703303128,0.12072493422975739
1742920011.3753104,-1.2339689999999999,-0.026718,-0.312259,-0.10248,0.012444,-0.01342,0.2537269804150833,-0.21455714703303128,0.12072493422975739
1742920011.3946025,-1.272399,-0.032390999999999996,-0.315919,-0.101504,0.001464,-0.024888,0.2347266881028939,-0.22917275650394622,0.11926337328266588
1742920011.4139175,-1.112091,0.014945,-0.322934,-0.092964,0.020007999999999998,-0.022203999999999998,0.2347266881028939,-0.22917275650394622,0.11926337328266588
1742920011.4335623,-1.00162,0.030622,-0.302865,-0.075396,0.029523999999999998,-0.019275999999999998,0.2347266881028939,-0.22917275650394622,0.11926337328266588
1742920011.4537678,-0.901946,0.022692,-0.268278,-0.055388,0.034648,-0.028548,0.2347266881028939,-0.22917275650394622,0.11926337328266588
1742920011.4730093,-0.9453779999999999,-0.011224,-0.223382,-0.040504,0.022935999999999998,-0.041236,0.2347266881028939,-0.22917275650394622,0.11926337328266588
1742920011.492115,-0.947269,-0.014823,-0.20557,-0.034648,0.018788,-0.049044,0.2347266881028939,-0.22917275650394622,0.11926337328266588
1742920011.5116658,-0.963861,-0.028304,-0.20813199999999998,-0.033428,0.013176,-0.040748,0.2347266881028939,-0.22917275650394622,0.11926337328266588
1742920011.5311892,-0.85949,0.024034,-0.216428,-0.034404,0.0034159999999999998,-0.021716,0.2347266881028939,-0.22917275650394622,0.11926337328266588
1742920011.5505042,-0.903288,0.037698,-0.24015699999999998,-0.033428,-0.007808,-0.0034159999999999998,0.2347266881028939,-0.22917275650394622,0.11926337328266588
1742920011.5698495,-0.876448,0.045689,-0.255346,-0.030744,0.0046359999999999995,0.01342,0.2347266881028939,-0.22917275650394622,0.11926337328266588
1742920011.5877604,-0.792451,0.03782,-0.252357,-0.022203999999999998,0.024644,0.01952,0.2335574393452207,-0.2332651271558024,0.12101724641917568
1742920011.6070666,-0.736148,-0.020557,-0.2379,-0.017079999999999998,0.039284,0.015616,0.2335574393452207,-0.2332651271558024,0.12101724641917568
1742920011.6265912,-0.731085,-0.009882,-0.236741,-0.024888,0.055144,0.013908,0.2335574393452207,-0.2332651271558024,0.12101724641917568
1742920011.6457076,-0.62281,0.056181,-0.247111,-0.029768,0.062952,0.017324,0.2335574393452207,-0.2332651271558024,0.12101724641917568
1742920011.665023,-0.635254,0.07747,-0.248575,-0.020252,0.043676,0.020007999999999998,0.2335574393452207,-0.2332651271558024,0.12101724641917568
1742920011.6843328,-0.6639849999999999,0.048799999999999996,-0.24570799999999998,-0.008539999999999999,0.026108,0.022692,0.2335574393452207,-0.2332651271558024,0.12101724641917568
1742920011.7036598,-0.648491,0.050996,-0.259555,-0.005124,0.015127999999999999,0.030255999999999998,0.2335574393452207,-0.2332651271558024,0.12101724641917568
1742920011.7229779,-0.673867,0.075091,-0.272792,-0.00366,-0.008052,0.043676,0.2335574393452207,-0.2332651271558024,0.12101724641917568
1742920011.7422822,-0.7357819999999999,0.101809,-0.292861,0.00122,-0.030255999999999998,0.054655999999999996,0.2335574393452207,-0.2332651271558024,0.12101724641917568
1742920011.7616427,-0.878583,0.06508699999999999,-0.318176,0.0053679999999999995,-0.046848,0.055388,0.2335574393452207,-0.2332651271558024,0.12101724641917568
1742920011.7809415,-1.00833,-0.010614,-0.36789099999999997,-0.004148,-0.046604,0.046848,0.2335574393452207,-0.2332651271558024,0.12101724641917568
1742920011.8002522,-1.105564,0.00244,-0.40809,-0.025376,-0.045628,0.045628,0.22128032738965214,-0.2551885413621748,0.12247880736626718
1742920011.8195693,-1.060973,0.089609,-0.46665,-0.02928,-0.035136,0.053924,0.22128032738965214,-0.2551885413621748,0.12247880736626718
1742920011.838881,-1.136674,0.07686,-0.516975,-0.014152,-0.03904,0.057828,0.22128032738965214,-0.2551885413621748,0.12247880736626718
1742920011.8581877,-1.209569,0.052032999999999996,-0.5158159999999999,-0.001464,-0.027327999999999998,0.038308,0.22128032738965214,-0.2551885413621748,0.12247880736626718
1742920011.877529,-1.1317329999999999,0.088572,-0.501725,0.0034159999999999998,-0.006588,0.035136,0.22128032738965214,-0.2551885413621748,0.12247880736626718
1742920011.8968313,-1.134966,0.111325,-0.490135,0.01586,0.010003999999999999,0.033184,0.22128032738965214,-0.2551885413621748,0.12247880736626718
1742920011.9161263,-1.143384,0.090646,-0.465613,0.0305,0.016836,0.020252,0.22128032738965214,-0.2551885413621748,0.12247880736626718
1742920011.9354591,-1.147166,0.079178,-0.435784,0.041479999999999996,0.008539999999999999,0.011467999999999999,0.22128032738965214,-0.2551885413621748,0.12247880736626718
1742920011.9548516,-1.250805,0.072712,-0.414495,0.05734,0.012199999999999999,0.006588,0.22128032738965214,-0.2551885413621748,0.12247880736626718
1742920011.9741182,-1.344684,0.035929,-0.410103,0.047824,0.027327999999999998,0.003172,0.22128032738965214,-0.2551885413621748,0.12247880736626718
1742920011.9934669,-1.244949,0.032147,-0.384483,0.032695999999999996,0.032695999999999996,0.000976,0.22128032738965214,-0.2551885413621748,0.12247880736626718
1742920012.0128107,-1.089094,0.08588799999999999,-0.282064,0.022935999999999998,0.031476,-0.002928,0.21981876644256065,-0.24875767319497222,0.13241742180648933
1742920012.0321393,-0.976488,0.122793,-0.246501,0.018056,0.03294,-0.009271999999999999,0.21981876644256065,-0.24875767319497222,0.13241742180648933
1742920012.0514424,-0.962336,0.114802,-0.229177,0.011224,0.031964,-0.009516,0.21981876644256065,-0.24875767319497222,0.13241742180648933
1742920012.0707533,-0.957456,0.145241,-0.219905,0.00366,0.032208,-0.00244,0.21981876644256065,-0.24875767319497222,0.13241742180648933
1742920012.0900738,-0.8994449999999999,0.151463,-0.21459799999999998,0.0017079999999999999,0.024156,0.0068319999999999995,0.21981876644256065,-0.24875767319497222,0.13241742180648933
1742920012.1093984,-0.8233779999999999,0.10729899999999999,-0.207644,0.0046359999999999995,0.009271999999999999,0.0053679999999999995,0.21981876644256065,-0.24875767319497222,0.13241742180648933
1742920012.1287162,-0.790377,0.060939,-0.196908,0.002928,-0.011956,-0.0046359999999999995,0.21981876644256065,-0.24875767319497222,0.13241742180648933
1742920012.148027,-0.775188,0.057096,-0.206058,-0.003172,-0.022692,-0.017324,0.21981876644256065,-0.24875767319497222,0.13241742180648933
1742920012.16734,-0.73078,0.082533,-0.225761,-0.0046359999999999995,-0.027816,-0.02562,0.21981876644256065,-0.24875767319497222,0.13241742180648933
1742920012.1866603,-0.751459,0.037027,-0.224419,-0.00244,-0.037087999999999996,-0.028304,0.21981876644256065,-0.24875767319497222,0.13241742180648933
1742920012.2059758,-0.701622,0.050508,-0.249612,-0.0046359999999999995,-0.03172,-0.031232,0.22157263957907045,-0.24466530254311605,0.12452499269219526
1742920012.2252948,-0.718885,0.069723,-0.273707,-0.005124,-0.039284,-0.032452,0.22157263957907045,-0.24466530254311605,0.12452499269219526
1742920012.2446136,-0.7132729999999999,0.085705,-0.29707,-0.004148,-0.03904,-0.027327999999999998,0.22157263957907045,-0.24466530254311605,0.12452499269219526
1742920012.2639253,-0.789401,0.065453,-0.336842,-0.005856,-0.03294,-0.020007999999999998,0.22157263957907045,-0.24466530254311605,0.12452499269219526
1742920012.2832692,-0.80215,0.073932,-0.35434899999999997,-0.004392,-0.024399999999999998,-0.013176,0.22157263957907045,-0.24466530254311605,0.12452499269219526
1742920012.3025727,-0.890356,0.07991,-0.381006,-0.00244,-0.015616,-0.01342,0.22157263957907045,-0.24466530254311605,0.12452499269219526
1742920012.3219118,-0.907619,0.094733,-0.40809,-0.00244,-0.003172,-0.020252,0.22157263957907045,-0.24466530254311605,0.12452499269219526
1742920012.3412375,-0.945134,0.096624,-0.421388,-0.00122,0.00244,-0.030987999999999998,0.22157263957907045,-0.24466530254311605,0.12452499269219526
1742920012.3605206,-0.971913,0.086681,-0.441884,-0.0017079999999999999,0.010003999999999999,-0.040748,0.22157263957907045,-0.24466530254311605,0.12452499269219526
1742920012.3798578,-1.012539,0.079666,-0.447191,-0.006344,0.014152,-0.04514,0.22157263957907045,-0.24466530254311605,0.12452499269219526
1742920012.399194,-1.020103,0.066795,-0.45566999999999996,-0.013176,0.026108,-0.046848,0.22157263957907045,-0.24466530254311605,0.12452499269219526
1742920012.4184775,-1.0772599999999999,0.06527,-0.453047,-0.020739999999999998,0.0305,-0.041968,0.23677287342882197,-0.23764980999707688,0.128178895059924
1742920012.439419,-1.1454579999999999,0.03111,-0.442494,-0.029523999999999998,0.044164,-0.034892,0.23677287342882197,-0.23764980999707688,0.128178895059924
1742920012.4584455,-1.200114,0.035197,-0.43511299999999997,-0.040992,0.061244,-0.023912,0.23677287342882197,-0.23764980999707688,0.128178895059924
1742920012.4779859,-1.170468,0.048068,-0.40607699999999997,-0.049776,0.069296,-0.010003999999999999,0.23677287342882197,-0.23764980999707688,0.128178895059924
1742920012.4968398,-1.179069,0.042517,-0.37807799999999997,-0.055144,0.063928,0.0017079999999999999,0.23677287342882197,-0.23764980999707688,0.128178895059924
1742920012.51618,-1.268556,0.028731,-0.360083,-0.058804,0.048312,0.00122,0.23677287342882197,-0.23764980999707688,0.128178895059924
1742920012.53575,-1.301069,0.037332,-0.35190899999999997,-0.061975999999999996,0.036356,-0.009271999999999999,0.23677287342882197,-0.23764980999707688,0.128178895059924
1742920012.5569825,-1.165893,0.051606,-0.340075,-0.05978,0.028059999999999998,-0.017568,0.23677287342882197,-0.23764980999707688,0.128178895059924
1742920012.573017,-1.023275,0.030987999999999998,-0.324703,-0.052948,0.017079999999999998,-0.018788,0.23677287342882197,-0.23764980999707688,0.128178895059924
1742920012.5923505,-0.949282,0.035868,-0.326655,-0.04636,0.009271999999999999,-0.017324,0.23677287342882197,-0.23764980999707688,0.128178895059924
1742920012.6137002,-1.02175,-0.013176,-0.334402,-0.037332,-0.00122,-0.01464,0.22361882490499854,-0.24115755627009647,0.1267173341128325
1742920012.6309743,-1.074637,-0.051667,-0.344833,-0.035623999999999996,0.00976,-0.011467999999999999,0.22361882490499854,-0.24115755627009647,0.1267173341128325
1742920012.650291,-1.062559,-0.060207,-0.346724,-0.040504,0.031232,-0.008539999999999999,0.22361882490499854,-0.24115755627009647,0.1267173341128325
1742920012.6704094,-1.015467,-0.047519,-0.327936,-0.046116,0.050508,-0.0053679999999999995,0.22361882490499854,-0.24115755627009647,0.1267173341128325
1742920012.688933,-0.935191,-0.032452,-0.30384099999999997,-0.05002,0.062464,-0.0017079999999999999,0.22361882490499854,-0.24115755627009647,0.1267173341128325
1742920012.7082446,-0.83814,-0.012688,-0.281881,-0.049044,0.06417199999999999,-0.0026839999999999998,0.22361882490499854,-0.24115755627009647,0.1267173341128325
1742920012.7275474,-0.775066,-0.0042699999999999995,-0.264069,-0.043676,0.055632,-0.003904,0.22361882490499854,-0.24115755627009647,0.1267173341128325
1742920012.7468932,-0.700585,-0.005612,-0.251991,-0.03782,0.0427,-0.003172,0.22361882490499854,-0.24115755627009647,0.1267173341128325
1742920012.7662044,-0.71797,0.04087,-0.25193,-0.038064,0.018056,-0.00366,0.22361882490499854,-0.24115755627009647,0.1267173341128325
1742920012.7855175,-0.7187629999999999,0.053253,-0.229177,-0.029523999999999998,0.007076,-0.0046359999999999995,0.22361882490499854,-0.24115755627009647,0.1267173341128325
1742920012.8048444,-0.7047329999999999,0.012931999999999999,-0.22045399999999998,-0.020496,0.011224,-0.004392,0.22361882490499854,-0.24115755627009647,0.1267173341128325
1742920012.8241515,-0.6858839999999999,0.041602,-0.24235299999999999,-0.02196,0.007076,-0.0026839999999999998,0.21806489330605086,-0.2543116047939199,0.1411867874890383
1742920012.843463,-0.7096129999999999,0.072651,-0.265594,-0.018788,-0.007076,-0.000732,0.21806489330605086,-0.2543116047939199,0.1411867874890383
1742920012.862787,-0.678015,0.064294,-0.278709,-0.012199999999999999,-0.016836,0.0034159999999999998,0.21806489330605086,-0.2543116047939199,0.1411867874890383
1742920012.8821456,-0.689056,0.067222,-0.296887,-0.010735999999999999,-0.025131999999999998,0.012931999999999999,0.21806489330605086,-0.2543116047939199,0.1411867874890383
1742920012.9014287,-0.6813089999999999,0.057096,-0.32574,-0.00976,-0.028304,0.02684,0.21806489330605086,-0.2543116047939199,0.1411867874890383
1742920012.920731,-0.769576,0.048007,-0.362828,-0.009028,-0.032695999999999996,0.035868,0.21806489330605086,-0.2543116047939199,0.1411867874890383
1742920012.940082,-0.843447,0.047030999999999996,-0.404796,-0.012688,-0.024399999999999998,0.039528,0.21806489330605086,-0.2543116047939199,0.1411867874890383
1742920012.9594114,-0.899689,0.088023,-0.469334,-0.014395999999999999,-0.01098,0.037332,0.21806489330605086,-0.2543116047939199,0.1411867874890383
1742920012.9787061,-0.981063,0.099186,-0.48983,-0.008296,-0.011467999999999999,0.034159999999999996,0.21806489330605086,-0.2543116047939199,0.1411867874890383
1742920012.998029,-1.0435269999999999,0.132309,-0.500139,0.0026839999999999998,-0.0017079999999999999,0.03294,0.21806489330605086,-0.2543116047939199,0.1411867874890383
1742920013.017356,-1.13948,0.133651,-0.49702799999999997,0.013663999999999999,0.0046359999999999995,0.036844,0.21806489330605086,-0.2543116047939199,0.1411867874890383
1742920013.036679,-1.239581,0.133773,-0.494161,0.028304,0.010003999999999999,0.045628,0.2110494007600117,-0.2595732242034493,0.13241742180648933
1742920013.05597,-1.22244,0.12444,-0.488305,0.042456,0.01098,0.054168,0.2110494007600117,-0.2595732242034493,0.13241742180648933
1742920013.0752833,-1.127036,0.150243,-0.46299,0.056364,-0.004148,0.052704,0.2110494007600117,-0.2595732242034493,0.13241742180648933
1742920013.094673,-1.23037,0.127307,-0.470676,0.075396,-0.028791999999999998,0.040504,0.2110494007600117,-0.2595732242034493,0.13241742180648933
1742920013.1139905,-1.2759369999999999,0.109678,-0.490562,0.092232,-0.031232,0.045871999999999996,0.2110494007600117,-0.2595732242034493,0.13241742180648933
1742920013.13329,-1.166747,0.116266,-0.50325,0.103944,-0.012199999999999999,0.058316,0.2110494007600117,-0.2595732242034493,0.13241742180648933
1742920013.1526022,-1.022909,0.116144,-0.469944,0.104188,0.003904,0.06709999999999999,0.2110494007600117,-0.2595732242034493,0.13241742180648933
1742920013.1719377,-0.935191,0.106933,-0.388814,0.10126,0.01464,0.059536,0.2110494007600117,-0.2595732242034493,0.13241742180648933
1742920013.1912665,-0.997533,0.097234,-0.267058,0.092964,0.025376,0.043188,0.2110494007600117,-0.2595732242034493,0.13241742180648933
1742920013.210553,-1.079883,0.077226,-0.273219,0.082228,0.03172,0.030744,0.2110494007600117,-0.2595732242034493,0.13241742180648933
1742920013.2298863,-1.0845799999999999,0.077958,-0.281393,0.072712,0.033916,0.023912,0.19935691318327975,-0.253434668225665,0.14308681672025725
1742920013.2492273,-1.072746,0.069662,-0.277733,0.063684,0.034892,0.024156,0.19935691318327975,-0.253434668225665,0.14308681672025725
1742920013.2685564,-0.988566,0.07869,-0.261385,0.058804,0.028791999999999998,0.027816,0.19935691318327975,-0.253434668225665,0.14308681672025725
1742920013.2878704,-0.923845,0.0549,-0.24326799999999998,0.057583999999999996,0.016347999999999998,0.027084,0.19935691318327975,-0.253434668225665,0.14308681672025725
1742920013.3071952,-0.870409,0.023729,-0.23277599999999998,0.055388,0.0053679999999999995,0.022203999999999998,0.19935691318327975,-0.253434668225665,0.14308681672025725
1742920013.3265042,-0.810507,0.004575,-0.241316,0.052948,-0.003172,0.01464,0.19935691318327975,-0.253434668225665,0.14308681672025725
1742920013.3458319,-0.780678,0.0053679999999999995,-0.274317,0.05246,-0.01342,0.001952,0.19935691318327975,-0.253434668225665,0.14308681672025725
1742920013.3651536,-0.7619509999999999,-0.024766,-0.282064,0.055144,-0.024156,-0.011224,0.19935691318327975,-0.253434668225665,0.14308681672025725
1742920013.3844697,-0.688385,-0.000366,-0.297741,0.056364,-0.027572,-0.021471999999999998,0.19935691318327975,-0.253434668225665,0.14308681672025725
1742920013.4037988,-0.695217,0.035136,-0.310856,0.057828,-0.047335999999999996,-0.022935999999999998,0.19935691318327975,-0.253434668225665,0.14308681672025725
1742920013.42488,-0.672464,0.036234,-0.330559,0.056608,-0.055876,-0.02196,0.19935691318327975,-0.253434668225665,0.14308681672025725
1742920013.4436855,-0.710406,0.056424999999999996,-0.381494,0.052948,-0.063928,-0.026595999999999998,0.20666471791873722,-0.2315112540192926,0.15594855305466238
1742920013.4624877,-0.767563,0.06478199999999999,-0.41717899999999997,0.050508,-0.070272,-0.0305,0.20666471791873722,-0.2315112540192926,0.15594855305466238
1742920013.4815867,-0.798795,0.062159,-0.456951,0.045628,-0.059536,-0.032452,0.20666471791873722,-0.2315112540192926,0.15594855305466238
1742920013.5008087,-0.828502,0.09113399999999999,-0.474031,0.038064,-0.047335999999999996,-0.033184,0.20666471791873722,-0.2315112540192926,0.15594855305466238
1742920013.5202057,-0.867542,0.080154,-0.487512,0.0305,-0.03294,-0.034159999999999996,0.20666471791873722,-0.2315112540192926,0.15594855305466238
1742920013.5383668,-0.922808,0.034465,-0.503128,0.013176,-0.02318,-0.03294,0.20666471791873722,-0.2315112540192926,0.15594855305466238
1742920013.557211,-0.965081,0.051545,-0.512888,-0.008052,-0.009516,-0.027327999999999998,0.20666471791873722,-0.2315112540192926,0.15594855305466238
1742920013.576506,-1.021384,0.07356599999999999,-0.507703,-0.025376,0.0060999999999999995,-0.013908,0.20666471791873722,-0.2315112540192926,0.15594855305466238
1742920013.5958164,-1.135942,0.069357,-0.507581,-0.036356,0.027327999999999998,-0.00122,0.20666471791873722,-0.2315112540192926,0.15594855305466238
1742920013.6151297,-1.1259379999999999,0.07649399999999999,-0.488915,-0.044407999999999996,0.044652,0.012931999999999999,0.20666471791873722,-0.2315112540192926,0.15594855305466238
1742920013.634456,-1.120204,0.019703,-0.458598,-0.048312,0.049044,0.022692,0.20666471791873722,-0.2315112540192926,0.15594855305466238
1742920013.6545165,-1.202859,-0.024522,-0.44273799999999996,-0.055632,0.048556,0.018543999999999998,0.20315697164571764,-0.2318035662087109,0.1547793042969892
1742920013.674136,-1.26331,-0.024217,-0.425597,-0.061488,0.047335999999999996,-0.011467999999999999,0.20315697164571764,-0.2318035662087109,0.1547793042969892
1742920013.6934693,-1.281549,0.010553,-0.39222999999999997,-0.064904,0.044407999999999996,-0.049776,0.20315697164571764,-0.2318035662087109,0.1547793042969892
1742920013.712782,-1.185352,0.045811,-0.365512,-0.066612,0.050263999999999996,-0.06539199999999999,0.20315697164571764,-0.2318035662087109,0.1547793042969892
1742920013.7325575,-1.018456,0.041174999999999996,-0.3355,-0.067832,0.047335999999999996,-0.05246,0.20315697164571764,-0.2318035662087109,0.1547793042969892
1742920013.7515619,-0.9128649999999999,0.049288,-0.328729,-0.06831999999999999,0.034404,-0.035868,0.20315697164571764,-0.2318035662087109,0.1547793042969892
1742920013.77079,-0.951539,0.017019,-0.324093,-0.06417199999999999,0.013908,-0.025131999999999998,0.20315697164571764,-0.2318035662087109,0.1547793042969892
1742920013.7901094,-1.040599,-0.013908,-0.335622,-0.062708,0.0075639999999999995,-0.026595999999999998,0.20315697164571764,-0.2318035662087109,0.1547793042969892
1742920013.8094356,-1.05957,-0.005246,-0.34202699999999997,-0.065148,0.011467999999999999,-0.025863999999999998,0.20315697164571764,-0.2318035662087109,0.1547793042969892
1742920013.828738,-1.019554,-0.0023179999999999997,-0.33611,-0.063928,0.017568,-0.0183,0.20315697164571764,-0.2318035662087109,0.1547793042969892
1742920013.8480728,-0.911584,0.002928,-0.33183999999999997,-0.056608,0.020984,-0.008296,0.2090032154340836,-0.2379421221864952,0.14630225080385853
1742920013.8673756,-0.8054439999999999,0.008539999999999999,-0.318115,-0.042943999999999996,0.008052,0.002196,0.2090032154340836,-0.2379421221864952,0.14630225080385853
1742920013.8867152,-0.714432,0.010492,-0.30195,-0.027572,-0.009271999999999999,0.014884,0.2090032154340836,-0.2379421221864952,0.14630225080385853
1742920013.9060352,-0.639219,0.022082,-0.299693,-0.015616,-0.025131999999999998,0.036112,0.2090032154340836,-0.2379421221864952,0.14630225080385853
1742920013.9253535,-0.675941,0.013969,-0.32452,-0.006588,-0.029768,0.056364,0.2090032154340836,-0.2379421221864952,0.14630225080385853
1742920013.9447215,-0.770125,0.022997,-0.36606099999999997,0.0,-0.020252,0.056364,0.2090032154340836,-0.2379421221864952,0.14630225080385853
1742920013.9640648,-0.807152,0.045201,-0.38112799999999997,0.005612,0.002196,0.032452,0.2090032154340836,-0.2379421221864952,0.14630225080385853
1742920013.9833415,-0.799283,0.066673,-0.367525,0.010735999999999999,0.030255999999999998,0.00122,0.2090032154340836,-0.2379421221864952,0.14630225080385853
1742920014.0026457,-0.792024,0.073993,-0.347761,0.01342,0.058316,-0.020252,0.2090032154340836,-0.2379421221864952,0.14630225080385853
1742920014.0219605,-0.780129,0.075823,-0.323422,0.013176,0.076372,-0.024399999999999998,0.2090032154340836,-0.2379421221864952,0.14630225080385853
1742920014.0412893,-0.759023,0.074969,-0.302804,0.010492,0.08174,-0.016104,0.2090032154340836,-0.2379421221864952,0.14630225080385853
1742920014.0605872,-0.784338,0.078324,-0.29426399999999997,0.005612,0.074908,-0.007808,0.19994153756211633,-0.23823443437591346,0.15974861151710026
1742920014.0799184,-0.788669,0.082533,-0.302438,-0.000244,0.060756,-0.003172,0.19994153756211633,-0.23823443437591346,0.15974861151710026
1742920014.0992615,-0.806725,0.067527,-0.320494,-0.006588,0.035136,-0.000732,0.19994153756211633,-0.23823443437591346,0.15974861151710026
1742920014.118547,-0.830576,0.063623,-0.352397,-0.014152,0.008052,0.002196,0.19994153756211633,-0.23823443437591346,0.15974861151710026
1742920014.13786,-0.887367,0.078812,-0.396378,-0.01952,-0.016347999999999998,0.008052,0.19994153756211633,-0.23823443437591346,0.15974861151710026
1742920014.157248,-0.963251,0.09113399999999999,-0.440115,-0.019764,-0.031964,0.012688,0.19994153756211633,-0.23823443437591346,0.15974861151710026
1742920014.1765127,-1.056398,0.09174399999999999,-0.48653599999999997,-0.015127999999999999,-0.035868,0.008784,0.19994153756211633,-0.23823443437591346,0.15974861151710026
1742920014.1958234,-1.103246,0.07326099999999999,-0.511119,-0.00976,-0.028548,-0.003172,0.19994153756211633,-0.23823443437591346,0.15974861151710026
1742920014.2151432,-1.13582,0.060451,-0.5139859999999999,-0.010003999999999999,-0.013663999999999999,-0.010248,0.19994153756211633,-0.23823443437591346,0.15974861151710026
1742920014.23445,-1.11447,0.058255,-0.49959,-0.011956,0.004148,-0.008784,0.19994153756211633,-0.23823443437591346,0.15974861151710026
1742920014.253793,-1.0294969999999999,0.112362,-0.47146899999999997,-0.01464,0.012688,0.05978,0.19994153756211633,-0.23677287342882197,0.15638702133878982
1742920014.2730937,-0.99308,0.15189,-0.444385,-0.012931999999999999,0.005856,0.003904,0.20841859105524702,-0.23677287342882197,0.15638702133878982
1742920014.2924252,-1.064633,0.162931,-0.437126,-0.005612,-0.01342,0.010492,0.20841859105524702,-0.23677287342882197,0.15638702133878982
1742920014.311732,-1.087752,0.174399,-0.424377,0.001952,-0.020496,0.017811999999999998,0.20841859105524702,-0.23677287342882197,0.15638702133878982
1742920014.3310435,-0.99979,0.14249599999999998,-0.405589,0.010735999999999999,-0.031964,0.019764,0.20841859105524702,-0.23677287342882197,0.15638702133878982
1742920014.3503516,-0.939095,0.116815,-0.391681,0.01342,-0.043676,0.013663999999999999,0.20841859105524702,-0.23677287342882197,0.15638702133878982
1742920014.3697236,-0.931043,0.100345,-0.386008,0.015372,-0.050752,0.004392,0.20841859105524702,-0.23677287342882197,0.15638702133878982
1742920014.389042,-0.963861,0.106262,-0.38978999999999997,0.018056,-0.05368,0.0,0.20841859105524702,-0.23677287342882197,0.15638702133878982
1742920014.409295,-0.998143,0.10498099999999999,-0.389607,0.019275999999999998,-0.052704,0.002196,0.20841859105524702,-0.23677287342882197,0.15638702133878982
1742920014.4286013,-1.148203,0.079361,-0.396683,0.019032,-0.048068,0.007808,0.20841859105524702,-0.23677287342882197,0.15638702133878982
1742920014.4490902,-1.161745,0.054473,-0.393694,0.020252,-0.036844,0.006588,0.20841859105524702,-0.23677287342882197,0.15638702133878982
1742920014.4677408,-1.097939,0.042395,-0.37637,0.02196,-0.024888,-0.002196,0.21718795673779598,-0.23501900029231218,0.1503946214557147
1742920014.4866097,-0.986553,0.025436999999999998,-0.351482,0.025376,-0.01586,-0.0075639999999999995,0.21718795673779598,-0.23501900029231218,0.1503946214557147
1742920014.5059838,-0.874862,0.006588,-0.328363,0.026595999999999998,-0.011712,-0.0053679999999999995,0.21718795673779598,-0.23501900029231218,0.1503946214557147
1742920014.5274804,-0.784399,0.003477,-0.301584,0.02196,-0.015127999999999999,0.005856,0.21718795673779598,-0.23501900029231218,0.1503946214557147
1742920014.5435684,-0.7421869999999999,0.005124,-0.299571,0.0183,-0.0183,0.017811999999999998,0.21718795673779598,-0.23501900029231218,0.1503946214557147
1742920014.5629182,-0.718336,0.004209,-0.311588,0.016592,-0.02318,0.025863999999999998,0.21718795673779598,-0.23501900029231218,0.1503946214557147
1742920014.5842075,-0.713761,0.033001,-0.32909499999999997,0.014884,-0.024644,0.029768,0.21718795673779598,-0.23501900029231218,0.1503946214557147
1742920014.6015513,-0.730963,0.015738,-0.352763,0.013176,-0.016347999999999998,0.0183,0.21718795673779598,-0.23501900029231218,0.1503946214557147
1742920014.6208718,-0.741821,0.011346,-0.361303,0.012688,-0.005856,-0.000244,0.21718795673779598,-0.23501900029231218,0.1503946214557147
1742920014.6409276,-0.757803,0.022203999999999998,-0.368013,0.011712,0.00366,-0.017811999999999998,0.21718795673779598,-0.23501900029231218,0.1503946214557147
1742920014.6595142,-0.795257,0.024278,-0.378261,0.012199999999999999,0.011712,-0.033428,0.21718795673779598,-0.23501900029231218,0.1503946214557147
1742920014.6788187,-0.845338,0.032208,-0.394243,0.010003999999999999,0.01952,-0.04026,0.22858813212510962,-0.23764980999707688,0.15083308973984216
1742920014.6981351,-0.893223,0.033672,-0.41809399999999997,0.005856,0.028548,-0.038796,0.22858813212510962,-0.23764980999707688,0.15083308973984216
1742920014.7174566,-0.903654,0.009089,-0.430294,0.000976,0.037576,-0.035868,0.22858813212510962,-0.23764980999707688,0.15083308973984216
1742920014.736771,-0.944219,0.004697,-0.435662,-0.007076,0.044896,-0.03904,0.22858813212510962,-0.23764980999707688,0.15083308973984216
1742920014.7560844,-1.011807,0.014457,-0.44029799999999997,-0.016836,0.053191999999999996,-0.045384,0.22858813212510962,-0.23764980999707688,0.15083308973984216
1742920014.7754128,-1.06567,0.019947,-0.432612,-0.027816,0.059047999999999996,-0.047092,0.22858813212510962,-0.23764980999707688,0.15083308973984216
1742920014.79472,-1.071648,0.032818,-0.41785,-0.039284,0.064416,-0.04026,0.22858813212510962,-0.23764980999707688,0.15083308973984216
1742920014.8140357,-1.030961,0.039284,-0.405955,-0.049288,0.063196,-0.027327999999999998,0.22858813212510962,-0.23764980999707688,0.15083308973984216
1742920014.8333647,-0.954162,0.016104,-0.394548,-0.058316,0.044896,-0.0183,0.22858813212510962,-0.23764980999707688,0.15083308973984216
1742920014.8526804,-0.9684969999999999,-0.013237,-0.396988,-0.066856,0.010735999999999999,-0.025131999999999998,0.22858813212510962,-0.23764980999707688,0.15083308973984216
1742920014.8719888,-1.062925,-0.041479999999999996,-0.434991,-0.07564,-0.023424,-0.040992,0.21981876644256065,-0.23121894182987432,0.15609470914937154
1742920014.8913562,-1.177605,-0.042761,-0.492453,-0.082716,-0.050752,-0.0549,0.21981876644256065,-0.23121894182987432,0.15609470914937154
1742920014.9106457,-1.123681,-0.009943,-0.553636,-0.092476,-0.048556,-0.05978,0.21981876644256065,-0.23121894182987432,0.15609470914937154
1742920014.9299645,-1.080432,-0.017202,-0.559004,-0.09589199999999999,-0.033184,-0.060268,0.21981876644256065,-0.23121894182987432,0.15609470914937154
1742920014.9493198,-1.024068,-0.0018909999999999999,-0.509228,-0.099796,-0.01098,-0.0549,0.21981876644256065,-0.23121894182987432,0.15609470914937154
1742920014.9687245,-1.0368169999999999,-0.018483,-0.448411,-0.102968,0.003904,-0.048312,0.21981876644256065,-0.23121894182987432,0.15609470914937154
1742920014.9879897,-1.059997,-0.032757,-0.407541,-0.108824,0.014152,-0.044652,0.21981876644256065,-0.23121894182987432,0.15609470914937154
1742920015.0073016,-1.059021,-0.028487,-0.372832,-0.11516799999999999,0.018543999999999998,-0.040504,0.21981876644256065,-0.23121894182987432,0.15609470914937154
1742920015.026618,-1.033279,-0.027389,-0.347822,-0.121268,0.01952,-0.029036,0.21981876644256065,-0.23121894182987432,0.15609470914937154
1742920015.0459354,-0.971608,-0.035197,-0.333914,-0.125416,0.019275999999999998,-0.009271999999999999,0.21981876644256065,-0.23121894182987432,0.15609470914937154
1742920015.065265,-0.903654,-0.038064,-0.313723,-0.122976,0.011712,0.011224,0.21981876644256065,-0.23121894182987432,0.15609470914937154
1742920015.0845869,-0.846863,-0.032025,-0.301584,-0.113948,0.005856,0.023424,0.21981876644256065,-0.23998830751242325,0.13241742180648933
1742920015.1038911,-0.797575,-0.02928,-0.289567,-0.10345599999999999,-0.00244,0.031232,0.21981876644256065,-0.23998830751242325,0.13241742180648933
1742920015.123216,-0.774395,-0.0060999999999999995,-0.2867,-0.09272,-0.010003999999999999,0.030012,0.21981876644256065,-0.23998830751242325,0.13241742180648933
1742920015.1425245,-0.753472,0.027816,-0.29517899999999997,-0.080276,-0.015372,0.020496,0.21981876644256065,-0.23998830751242325,0.13241742180648933
1742920015.1618414,-0.728401,0.039894,-0.29761899999999997,-0.06466,-0.02196,0.0075639999999999995,0.21981876644256065,-0.23998830751242325,0.13241742180648933
1742920015.181181,-0.708942,0.056913,-0.307562,-0.050508,-0.027084,0.0,0.21981876644256065,-0.23998830751242325,0.13241742180648933
1742920015.2005005,-0.6816139999999999,0.08265499999999999,-0.320006,-0.037087999999999996,-0.029036,0.000976,0.21981876644256065,-0.23998830751242325,0.13241742180648933
1742920015.2198145,-0.68686,0.083204,-0.338001,-0.023667999999999998,-0.028548,0.0068319999999999995,0.21981876644256065,-0.23998830751242325,0.13241742180648933
1742920015.2391253,-0.702537,0.08295999999999999,-0.359839,-0.011224,-0.023667999999999998,0.011712,0.21981876644256065,-0.23998830751242325,0.13241742180648933
1742920015.2584476,-0.72102,0.088755,-0.37960299999999997,0.000732,-0.020252,0.013663999999999999,0.21981876644256065,-0.23998830751242325,0.13241742180648933
1742920015.2777689,-0.768966,0.09235399999999999,-0.40058699999999997,0.013176,-0.017811999999999998,0.01098,0.21981876644256065,-0.23998830751242325,0.13241742180648933
1742920015.297081,-0.844362,0.091622,-0.431514,0.024644,-0.013908,0.0046359999999999995,0.22683425898859982,-0.2513884828997369,0.11473253434668226
1742920015.316397,-0.880779,0.095831,-0.454877,0.035136,-0.008052,-0.001952,0.22683425898859982,-0.2513884828997369,0.11473253434668226
1742920015.335711,-0.924882,0.110044,-0.478118,0.043432,-0.002928,-0.003904,0.22683425898859982,-0.2513884828997369,0.11473253434668226
1742920015.355047,-0.988688,0.129198,-0.5152059999999999,0.051484,0.006344,0.003904,0.22683425898859982,-0.2513884828997369,0.11473253434668226
1742920015.374384,-1.055239,0.12132899999999999,-0.534665,0.059536,0.017811999999999998,0.01952,0.22683425898859982,-0.2513884828997369,0.11473253434668226
1742920015.3937106,-1.130391,0.098942,-0.535641,0.066856,0.034159999999999996,0.034404,0.22683425898859982,-0.2513884828997369,0.11473253434668226
1742920015.4130101,-1.168577,0.088084,-0.528931,0.068808,0.050263999999999996,0.043432,0.22683425898859982,-0.2513884828997369,0.11473253434668226
1742920015.4323208,-1.1295979999999999,0.083387,-0.49776,0.065636,0.05734,0.044896,0.22683425898859982,-0.2513884828997369,0.11473253434668226
1742920015.452663,-1.114958,0.089548,-0.461221,0.057096,0.038796,0.040992,0.22683425898859982,-0.2513884828997369,0.11473253434668226
1742920015.4723048,-1.146922,0.108336,-0.434564,0.03904,0.021716,0.049776,0.22683425898859982,-0.2513884828997369,0.11473253434668226
1742920015.4912775,-1.231163,0.097417,-0.428403,0.030744,0.012931999999999999,0.064416,0.2110494007600117,-0.2531423560362467,0.13650979245834552
1742920015.5108433,-1.176873,0.06709999999999999,-0.43511299999999997,0.023912,0.009271999999999999,0.070272,0.2110494007600117,-0.2531423560362467,0.13650979245834552
1742920015.5300653,-1.049993,0.056424999999999996,-0.439261,0.021228,0.009271999999999999,0.066856,0.2110494007600117,-0.2531423560362467,0.13650979245834552
1742920015.5492465,-0.97295,0.050996,-0.444873,0.019764,0.011712,0.061,0.2110494007600117,-0.2531423560362467,0.13650979245834552
1742920015.5690036,-1.000522,0.083204,-0.425292,0.022692,0.017324,0.05002,0.2110494007600117,-0.2531423560362467,0.13650979245834552
1742920015.5868416,-1.000522,0.083204,-0.399489,0.030012,0.022203999999999998,0.0366,0.2110494007600117,-0.2531423560362467,0.13650979245834552
1742920015.6061487,-1.089216,0.076555,-0.380091,0.03782,0.02318,0.025131999999999998,0.2110494007600117,-0.2531423560362467,0.13650979245834552
1742920015.6257358,-1.062315,0.072346,-0.363682,0.045384,0.020007999999999998,0.01586,0.2110494007600117,-0.2531423560362467,0.13650979245834552
1742920015.644781,-1.000339,0.060878,-0.344101,0.053191999999999996,0.01464,0.005856,0.2110494007600117,-0.2531423560362467,0.13650979245834552
1742920015.6640768,-0.891759,0.03721,-0.322019,0.059047999999999996,0.009516,-0.003172,0.2110494007600117,-0.2531423560362467,0.13650979245834552
1742920015.6839645,-0.7920849999999999,0.01769,-0.303414,0.059536,0.00244,-0.010492,0.2110494007600117,-0.2531423560362467,0.13650979245834552
1742920015.7034504,-0.692472,0.023546,-0.290055,0.05734,-0.000976,-0.017079999999999998,0.20637240572931892,-0.2508038585209003,0.15594855305466238
1742920015.7227576,-0.633607,0.023729,-0.287981,0.051727999999999996,-0.0046359999999999995,-0.02318,0.20637240572931892,-0.2508038585209003,0.15594855305466238
1742920015.7420762,-0.655933,0.028243,-0.298473,0.04514,-0.011956,-0.0183,0.20637240572931892,-0.2508038585209003,0.15594855305466238
1742920015.7613904,-0.711321,0.008662,-0.316041,0.037332,-0.014152,-0.01098,0.20637240572931892,-0.2508038585209003,0.15594855305466238
1742920015.7807267,-0.731268,0.004331,-0.331718,0.029768,-0.012444,-0.00732,0.20637240572931892,-0.2508038585209003,0.15594855305466238
1742920015.79927,-0.764208,0.003538,-0.345809,0.022935999999999998,-0.012199999999999999,-0.010003999999999999,0.20637240572931892,-0.2508038585209003,0.15594855305466238
1742920015.8185837,-0.748958,0.011651,-0.352397,0.016592,-0.010735999999999999,-0.017811999999999998,0.20637240572931892,-0.2508038585209003,0.15594855305466238
1742920015.83789,-0.730719,0.018361,-0.366427,0.01098,-0.011956,-0.027327999999999998,0.20637240572931892,-0.2508038585209003,0.15594855305466238
1742920015.8571699,-0.723094,0.031476,-0.387472,0.00488,-0.014884,-0.033916,0.20637240572931892,-0.2508038585209003,0.15594855305466238
1742920015.8765554,-0.740601,0.046299,-0.417728,-0.000488,-0.016836,-0.035868,0.20637240572931892,-0.2508038585209003,0.15594855305466238
1742920015.8966177,-0.783057,0.055632,-0.45170499999999997,-0.0060999999999999995,-0.015616,-0.03538,0.2092955276235019,-0.2379421221864952,0.15770242619117217
1742920015.9158843,-0.84119,0.051362,-0.48678,-0.013663999999999999,-0.011224,-0.030987999999999998,0.2092955276235019,-0.2379421221864952,0.15770242619117217
1742920015.9351954,-0.904081,0.040504,-0.507459,-0.023667999999999998,-0.005612,-0.024888,0.2092955276235019,-0.2379421221864952,0.15770242619117217
1742920015.954587,-0.972828,0.041419,-0.519232,-0.03782,0.002196,-0.01952,0.2092955276235019,-0.2379421221864952,0.15770242619117217
1742920015.9739313,-1.03029,0.048068,-0.519537,-0.051972,0.006344,-0.011712,0.2092955276235019,-0.2379421221864952,0.15770242619117217
1742920015.9924862,-1.062437,0.043005,-0.5170359999999999,-0.062952,0.011712,-0.00244,0.2092955276235019,-0.2379421221864952,0.15770242619117217
1742920016.0117722,-1.043405,0.037515,-0.5158159999999999,-0.07002799999999999,0.013176,-0.000976,0.2092955276235019,-0.2379421221864952,0.15770242619117217
1742920016.0311055,-1.045723,0.021533,-0.50142,-0.073688,0.0068319999999999995,-0.010248,0.2092955276235019,-0.2379421221864952,0.15770242619117217
1742920016.0504034,-1.131001,0.011346,-0.48684099999999997,-0.077592,-0.001952,-0.025131999999999998,0.2092955276235019,-0.2379421221864952,0.15770242619117217
1742920016.0697072,-1.288991,0.009455,-0.492453,-0.0793,-0.00732,-0.042456,0.2092955276235019,-0.2379421221864952,0.15770242619117217
1742920016.0890274,-1.343891,0.009882,-0.49080599999999996,-0.076616,-0.002196,-0.049776,0.2092955276235019,-0.2379421221864952,0.15770242619117217
1742920016.1083305,-1.157841,0.02623,-0.472872,-0.073688,0.006588,-0.038551999999999996,0.21484945922244958,-0.24524992692195263,0.13753288512130957
1742920016.127645,-0.996435,0.024278,-0.460489,-0.06539199999999999,0.013908,-0.029036,0.21484945922244958,-0.24524992692195263,0.13753288512130957
1742920016.1469517,-0.952759,0.005246,-0.44743499999999997,-0.05734,0.0183,-0.024156,0.21484945922244958,-0.24524992692195263,0.13753288512130957
1742920016.1662617,-0.9624579999999999,-0.024278,-0.422303,-0.052704,0.02684,-0.025131999999999998,0.21484945922244958,-0.24524992692195263,0.13753288512130957
1742920016.18566,-1.004243,-0.039589,-0.392108,-0.05246,0.034159999999999996,-0.027816,0.21484945922244958,-0.24524992692195263,0.13753288512130957
1742920016.2049248,-0.996984,-0.034648,-0.356301,-0.055632,0.033184,-0.02196,0.21484945922244958,-0.24524992692195263,0.13753288512130957
1742920016.224232,-0.9560529999999999,-0.028304,-0.340624,-0.060511999999999996,0.028548,-0.006588,0.21484945922244958,-0.24524992692195263,0.13753288512130957
1742920016.243537,-0.8966999999999999,-0.021594,-0.32817999999999997,-0.064904,0.017568,0.011712,0.21484945922244958,-0.24524992692195263,0.13753288512130957
1742920016.2628329,-0.8267329999999999,-0.015493999999999999,-0.320616,-0.063928,0.006588,0.017079999999999998,0.21484945922244958,-0.24524992692195263,0.13753288512130957
1742920016.2821705,-0.766038,0.0075639999999999995,-0.31616299999999997,-0.055388,-0.000488,0.003172,0.21484945922244958,-0.24524992692195263,0.13753288512130957
1742920016.3022292,-0.748958,0.026962,-0.311405,-0.041236,-0.005124,-0.0183,0.21484945922244958,-0.24524992692195263,0.13753288512130957
1742920016.3215666,-0.7814099999999999,0.034343,-0.306464,-0.028304,-0.007076,-0.0305,0.21806489330605086,-0.2522654194679918,0.13417129494299912
1742920016.3408587,-0.819474,0.040626,-0.313784,-0.019275999999999998,-0.010492,-0.02928,0.21806489330605086,-0.2522654194679918,0.13417129494299912
1742920016.3601608,-0.8152039999999999,0.048494999999999996,-0.323971,-0.012931999999999999,-0.015127999999999999,-0.021471999999999998,0.21806489330605086,-0.2522654194679918,0.13417129494299912
1742920016.3794882,-0.801418,0.048922,-0.334951,-0.005856,-0.016347999999999998,-0.01586,0.21806489330605086,-0.2522654194679918,0.13417129494299912
1742920016.3981154,-0.770247,0.052155,-0.34038,0.000244,-0.01586,-0.013663999999999999,0.21806489330605086,-0.2522654194679918,0.13417129494299912
1742920016.417383,-0.736453,0.053009,-0.344284,0.0046359999999999995,-0.01586,-0.012688,0.21806489330605086,-0.2522654194679918,0.13417129494299912
1742920016.437733,-0.733281,0.056242,-0.359656,0.005124,-0.01586,-0.0060999999999999995,0.21806489330605086,-0.2522654194679918,0.13417129494299912
1742920016.4578145,-0.728828,0.058316,-0.383995,0.005124,-0.017079999999999998,0.00244,0.21806489330605086,-0.2522654194679918,0.13417129494299912
1742920016.4765487,-0.781227,0.054534,-0.426268,0.006588,-0.019032,0.007076,0.21806489330605086,-0.2522654194679918,0.13417129494299912
1742920016.4959097,-0.824781,0.060816999999999996,-0.479338,0.010248,-0.016104,0.010492,0.21806489330605086,-0.2522654194679918,0.13417129494299912
1742920016.5153875,-0.87169,0.05795,-0.519232,0.016592,-0.00732,0.014884,0.22040339082139726,-0.24524992692195263,0.1305173925752704
1742920016.5346477,-0.94489,0.075091,-0.547414,0.024399999999999998,0.009271999999999999,0.023667999999999998,0.22040339082139726,-0.24524992692195263,0.1305173925752704
1742920016.554142,-1.012112,0.094428,-0.548817,0.03294,0.023424,0.048799999999999996,0.22040339082139726,-0.24524992692195263,0.1305173925752704
1742920016.5719454,-1.057008,0.09528199999999999,-0.532652,0.044164,0.033672,0.048799999999999996,0.22040339082139726,-0.24524992692195263,0.1305173925752704
1742920016.5912786,-1.104466,0.083936,-0.511363,0.055388,0.03782,0.0549,0.22040339082139726,-0.24524992692195263,0.1305173925752704
1742920016.6108506,-1.120692,0.075884,-0.488488,0.063928,0.03538,0.057096,0.22040339082139726,-0.24524992692195263,0.1305173925752704
1742920016.6298783,-1.065304,0.073322,-0.463173,0.070272,0.025376,0.053191999999999996,0.22040339082139726,-0.24524992692195263,0.1305173925752704
1742920016.6491704,-1.087569,0.076006,-0.464698,0.072224,0.008784,0.041236,0.22040339082139726,-0.24524992692195263,0.1305173925752704
1742920016.6684813,-1.124596,0.098576,-0.470371,0.071736,-0.014152,0.040992,0.22040339082139726,-0.24524992692195263,0.1305173925752704
1742920016.6879296,-1.1785809999999999,0.099796,-0.47329899999999997,0.068564,-0.012688,0.049288,0.22040339082139726,-0.24524992692195263,0.1305173925752704
1742920016.7078514,-1.142164,0.081923,-0.468541,0.061,-0.006588,0.057828,0.22040339082139726,-0.24524992692195263,0.1305173925752704
1742920016.7271545,-1.028826,0.073688,-0.458781,0.053924,-0.0046359999999999995,0.060511999999999996,0.2052031569716457,-0.24261911721718796,0.15390236772873428
1742920016.7464726,-0.941657,0.08234999999999999,-0.396317,0.047824,-0.010003999999999999,0.060024,0.2052031569716457,-0.24261911721718796,0.15390236772873428
1742920016.7657866,-0.982283,0.093696,-0.382775,0.046116,-0.013176,0.05734,0.2052031569716457,-0.24261911721718796,0.15390236772873428
1742920016.7851186,-0.996862,0.108458,-0.372466,0.048312,-0.01952,0.048312,0.2052031569716457,-0.24261911721718796,0.15390236772873428
1742920016.804409,-1.01992,0.106811,-0.364658,0.05124,-0.023667999999999998,0.038064,0.2052031569716457,-0.24261911721718796,0.15390236772873428
1742920016.8237226,-0.980453,0.08851099999999999,-0.362279,0.053191999999999996,-0.024156,0.029523999999999998,0.2052031569716457,-0.24261911721718796,0.15390236772873428
1742920016.8430238,-0.8778509999999999,0.070577,-0.341173,0.049288,-0.025131999999999998,0.027084,0.2052031569716457,-0.24261911721718796,0.15390236772873428
1742920016.8623443,-0.775371,0.041541,-0.319945,0.042456,-0.018788,0.026595999999999998,0.2052031569716457,-0.24261911721718796,0.15390236772873428
1742920016.8816597,-0.723887,0.035441,-0.303353,0.032452,-0.018788,0.02562,0.2052031569716457,-0.24261911721718796,0.15390236772873428
1742920016.9002714,-0.6904589999999999,0.03721,-0.289445,0.023424,-0.020007999999999998,0.02196,0.2052031569716457,-0.24261911721718796,0.15390236772873428
1742920016.919559,-0.6557499999999999,0.024888,-0.288652,0.016104,-0.025131999999999998,0.016104,0.2052031569716457,-0.24261911721718796,0.15390236772873428
1742920016.938851,-0.640378,0.021777,-0.301523,0.011956,-0.030987999999999998,0.009271999999999999,0.19760304004676996,-0.24437299035369775,0.1512715580239696
1742920016.958164,-0.642635,0.029585,-0.314882,0.009028,-0.037576,0.0053679999999999995,0.19760304004676996,-0.24437299035369775,0.1512715580239696
1742920016.977582,-0.665632,0.041541,-0.328851,0.005856,-0.043432,0.0053679999999999995,0.19760304004676996,-0.24437299035369775,0.1512715580239696
1742920016.996841,-0.703086,0.02989,-0.34202699999999997,0.001952,-0.047335999999999996,0.0075639999999999995,0.19760304004676996,-0.24437299035369775,0.1512715580239696
1742920017.016135,-0.748165,0.043493,-0.362828,-0.002928,-0.049288,0.005612,0.19760304004676996,-0.24437299035369775,0.1512715580239696
1742920017.035449,-0.816729,0.046299,-0.38978999999999997,-0.005856,-0.049288,-0.000244,0.19760304004676996,-0.24437299035369775,0.1512715580239696
1742920017.05474,-0.868274,0.051545,-0.413275,-0.011712,-0.048556,-0.002928,0.19760304004676996,-0.24437299035369775,0.1512715580239696
1742920017.0740595,-0.909632,0.051422999999999996,-0.444873,-0.020984,-0.046116,-0.00244,0.19760304004676996,-0.24437299035369775,0.1512715580239696
1742920017.0937588,-0.9438529999999999,0.067527,-0.48129,-0.030012,-0.038064,-0.008296,0.19760304004676996,-0.24437299035369775,0.1512715580239696
1742920017.1135073,-0.996923,0.082899,-0.511912,-0.03782,-0.023667999999999998,-0.022935999999999998,0.19760304004676996,-0.24437299035369775,0.1512715580239696
1742920017.1328065,-1.011441,0.08033699999999999,-0.521489,-0.049532,-0.00122,-0.038308,0.2116340251388483,-0.24641917567962585,0.13577901198479977
1742920017.1521232,-1.077748,0.101809,-0.528992,-0.06466,0.021716,-0.048799999999999996,0.2116340251388483,-0.24641917567962585,0.13577901198479977
1742920017.171435,-1.160647,0.12132899999999999,-0.5422899999999999,-0.07417599999999999,0.045384,-0.050752,0.2116340251388483,-0.24641917567962585,0.13577901198479977
1742920017.1907706,-1.20597,0.125172,-0.532774,-0.07808,0.061488,-0.039528,0.2116340251388483,-0.24641917567962585,0.13577901198479977
1742920017.2101068,-1.163453,0.096746,-0.502945,-0.07808,0.070272,-0.020007999999999998,0.2116340251388483,-0.24641917567962585,0.13577901198479977
1742920017.2294219,-1.1798009999999999,0.075945,-0.474763,-0.078568,0.057828,-0.010492,0.2116340251388483,-0.24641917567962585,0.13577901198479977
1742920017.2487268,-1.19255,0.041784999999999996,-0.465979,-0.0793,0.042456,-0.019032,0.2116340251388483,-0.24641917567962585,0.13577901198479977
1742920017.268039,-1.184803,0.054107,-0.476837,-0.08174,0.019275999999999998,-0.041236,0.2116340251388483,-0.24641917567962585,0.13577901198479977
1742920017.287362,-1.159183,0.105591,-0.511119,-0.08174,0.000244,-0.060268,0.2116340251388483,-0.24641917567962585,0.13577901198479977
1742920017.30592,-1.0343769999999999,0.073383,-0.523929,-0.074908,0.00122,-0.061244,0.2116340251388483,-0.24641917567962585,0.13577901198479977
1742920017.3252351,-0.957212,0.037759,-0.508008,-0.07124799999999999,0.012199999999999999,-0.05246,0.2116340251388483,-0.24641917567962585,0.13577901198479977
1742920017.3445354,-0.905179,0.02013,-0.457805,-0.066856,0.026108,-0.039528,0.2090032154340836,-0.2513884828997369,0.1370944168371821
1742920017.3638473,-0.956907,-0.019337,-0.40577199999999997,-0.062464,0.034159999999999996,-0.036112,0.2090032154340836,-0.2513884828997369,0.1370944168371821
1742920017.3831792,-0.993812,-0.038064,-0.366122,-0.061732,0.035136,-0.04026,0.2090032154340836,-0.2513884828997369,0.1370944168371821
1742920017.4032624,-1.008757,-0.030744,-0.339343,-0.061,0.02928,-0.04758,0.2090032154340836,-0.2513884828997369,0.1370944168371821
1742920017.422549,-0.950685,0.023424,-0.317505,-0.060268,0.019764,-0.04758,0.2090032154340836,-0.2513884828997369,0.1370944168371821
1742920017.4418857,-0.886208,0.058255,-0.303719,-0.056852,0.00488,-0.037332,0.2090032154340836,-0.2513884828997369,0.1370944168371821
1742920017.4612646,-0.803187,0.044286,-0.28621199999999997,-0.052704,-0.014152,-0.019764,0.2090032154340836,-0.2513884828997369,0.1370944168371821
1742920017.4838595,-0.764818,0.024461,-0.290116,-0.049776,-0.02684,0.000976,0.2090032154340836,-0.2513884828997369,0.1370944168371821
1742920017.501002,-0.694973,0.062891,-0.296643,-0.04514,-0.033428,0.019275999999999998,0.2090032154340836,-0.2513884828997369,0.1370944168371821
1742920017.519753,-0.681797,0.116754,-0.318054,-0.033428,-0.040992,0.024644,0.2090032154340836,-0.2513884828997369,0.1370944168371821
1742920017.5386949,-0.725534,0.11193499999999999,-0.330193,-0.020984,-0.040504,0.018056,0.22244957614732536,-0.2645425314235604,0.12233265127155803
1742920017.5581937,-0.788547,0.094245,-0.339465,-0.015127999999999999,-0.03538,0.010492,0.22244957614732536,-0.2645425314235604,0.12233265127155803
1742920017.5775106,-0.773297,0.101199,-0.343735,-0.012688,-0.023912,0.0060999999999999995,0.22244957614732536,-0.2645425314235604,0.12233265127155803
1742920017.6004937,-0.800137,0.10614,-0.346236,-0.00366,-0.010735999999999999,0.013908,0.22244957614732536,-0.2645425314235604,0.12233265127155803
1742920017.614995,-0.8023939999999999,0.10492,-0.347151,-0.00366,-0.010735999999999999,0.013908,0.22244957614732536,-0.2645425314235604,0.12233265127155803
1742920017.634316,-0.796721,0.101077,-0.352763,-0.001464,-0.00732,0.021716,0.22244957614732536,-0.2645425314235604,0.12233265127155803
1742920017.6572173,-0.795257,0.081191,-0.35800899999999997,0.00122,-0.01342,0.025131999999999998,0.22244957614732536,-0.2645425314235604,0.12233265127155803
1742920017.6729422,-0.797697,0.069662,-0.370819,0.002928,-0.01342,0.025131999999999998,0.22244957614732536,-0.2645425314235604,0.12233265127155803
1742920017.69226,-0.802333,0.073139,-0.391742,0.00488,-0.018056,0.020496,0.22244957614732536,-0.2645425314235604,0.12233265127155803
1742920017.7138903,-0.8303929999999999,0.076067,-0.41290899999999997,0.009028,-0.023424,0.01586,0.22244957614732536,-0.2645425314235604,0.12233265127155803
1742920017.7308986,-0.8784609999999999,0.09174399999999999,-0.437187,0.013176,-0.024888,0.01586,0.22244957614732536,-0.2645425314235604,0.12233265127155803
1742920017.750213,-0.93452,0.098088,-0.45688999999999996,0.017811999999999998,-0.020984,0.01586,0.21426483484361297,-0.267173341128325,0.1160479391990646
1742920017.7706158,-1.015894,0.090646,-0.468541,0.022448,-0.010735999999999999,0.018543999999999998,0.21426483484361297,-0.267173341128325,0.1160479391990646
1742920017.788838,-1.0751249999999999,0.08967,-0.470737,0.027572,0.005612,0.018543999999999998,0.21426483484361297,-0.267173341128325,0.1160479391990646
1742920017.8088102,-1.086959,0.073688,-0.455792,0.034648,0.016347999999999998,0.016836,0.21426483484361297,-0.267173341128325,0.1160479391990646
1742920017.8289044,-1.06933,0.072773,-0.435357,0.042212,0.015616,0.013663999999999999,0.21426483484361297,-0.267173341128325,0.1160479391990646
1742920017.8474963,-1.092998,0.118157,-0.42401099999999997,0.042212,0.008539999999999999,0.028304,0.21426483484361297,-0.267173341128325,0.1160479391990646
1742920017.8668065,-1.181204,0.151646,-0.424987,0.050996,0.0075639999999999995,0.052216,0.21426483484361297,-0.267173341128325,0.1160479391990646
1742920017.8864653,-1.26819,0.15298799999999999,-0.436394,0.05246,0.008539999999999999,0.072956,0.21426483484361297,-0.267173341128325,0.1160479391990646
1742920017.905519,-1.171383,0.167262,-0.413092,0.056852,0.00976,0.077592,0.21426483484361297,-0.267173341128325,0.1160479391990646
1742920017.924773,-1.061217,0.182939,-0.387472,0.061488,0.0075639999999999995,0.076372,0.21426483484361297,-0.267173341128325,0.1160479391990646
1742920017.9440687,-1.014857,0.190625,-0.367769,0.064904,0.008296,0.071492,0.21426483484361297,-0.267173341128325,0.1160479391990646
1742920017.9633775,-1.003938,0.198982,-0.34465,0.069784,0.010003999999999999,0.064416,0.20198772288804442,-0.26775796550716163,0.12277111955568547
1742920017.9827614,-0.98515,0.179584,-0.329766,0.0732,0.012199999999999999,0.0549,0.20198772288804442,-0.26775796550716163,0.12277111955568547
1742920018.0020447,-1.019188,0.1586,-0.318542,0.076616,0.014395999999999999,0.043188,0.20198772288804442,-0.26775796550716163,0.12277111955568547
1742920018.0206115,-1.004609,0.132797,-0.300425,0.082716,0.008784,0.030987999999999998,0.20198772288804442,-0.26775796550716163,0.12277111955568547
1742920018.039916,-0.943731,0.119865,-0.28346699999999997,0.088572,-0.002928,0.022203999999999998,0.20198772288804442,-0.26775796550716163,0.12277111955568547
1742920018.0592139,-0.880047,0.123342,-0.274866,0.09467199999999999,-0.020984,0.019275999999999998,0.20198772288804442,-0.26775796550716163,0.12277111955568547
1742920018.0785263,-0.809592,0.10065,-0.272914,0.101016,-0.038064,0.020007999999999998,0.20198772288804442,-0.26775796550716163,0.12277111955568547
1742920018.0978334,-0.780678,0.080093,-0.275598,0.10492,-0.05246,0.021716,0.20198772288804442,-0.26775796550716163,0.12277111955568547
1742920018.1179173,-0.735843,0.063928,-0.28224699999999997,0.108092,-0.060511999999999996,0.022203999999999998,0.20198772288804442,-0.26775796550716163,0.12277111955568547
1742920018.137201,-0.749324,0.043981,-0.30073,0.10931199999999999,-0.063928,0.017811999999999998,0.20198772288804442,-0.26775796550716163,0.12277111955568547
1742920018.1565127,-0.743529,0.030134,-0.315065,0.10736,-0.060511999999999996,0.011224,0.20286465945629933,-0.2557731657410114,0.14425606547793043
1742920018.175822,-0.732,0.018971,-0.323056,0.102968,-0.054168,0.0034159999999999998,0.20286465945629933,-0.2557731657410114,0.14425606547793043
1742920018.195134,-0.727608,0.020191,-0.330864,0.097112,-0.04514,-0.007076,0.20286465945629933,-0.2557731657410114,0.14425606547793043
1742920018.2144346,-0.741211,0.014823,-0.34282,0.089548,-0.034648,-0.017079999999999998,0.20286465945629933,-0.2557731657410114,0.14425606547793043
