Timestamp,Accel X,Accel Y,Accel Z,Gyro X,Gyro Y,Gyro Z,Magneto X,Magneto Y,Magneto Z
1742920335.4817805,-1.002657,0.019947,-0.173667,-0.000732,0.0,0.001952,0.31598947676118094,0.13387898275358082,-0.1148786904413914
1742920335.520343,-1.006012,0.019154,-0.17610699999999999,-0.000732,0.0017079999999999999,0.004392,0.31598947676118094,0.13387898275358082,-0.1148786904413914
1742920335.5588398,-1.002535,0.021167,-0.178181,-0.000976,0.002928,0.0053679999999999995,0.31598947676118094,0.13387898275358082,-0.1148786904413914
1742920335.5973637,-0.99674,0.021471999999999998,-0.173179,-0.00122,0.001464,0.0046359999999999995,0.30838935983630517,0.12481730488161356,-0.12057877813504823
1742920335.6358907,-1.017907,0.025803,-0.169641,-0.000732,0.00366,0.0068319999999999995,0.30838935983630517,0.12481730488161356,-0.12057877813504823
1742920335.6744301,-0.994178,-0.012627,-0.147803,0.009271999999999999,0.0034159999999999998,-0.00122,0.30838935983630517,0.12481730488161356,-0.12057877813504823
1742920335.712943,-1.057313,0.027084,-0.183061,0.019764,0.007808,0.0075639999999999995,0.30838935983630517,0.12481730488161356,-0.12057877813504823
1742920335.7514837,-1.100501,0.053375,-0.194773,0.036356,0.028548,0.012931999999999999,0.30838935983630517,0.12481730488161356,-0.12057877813504823
1742920335.7929451,-1.1213629999999999,0.040199,-0.207766,0.055144,0.06466,0.021716,0.30838935983630517,0.12481730488161356,-0.12057877813504823
1742920335.8285317,-1.090253,0.093757,-0.144692,0.073444,0.0793,0.030012,0.3086816720257235,0.11984799766150249,-0.10640163694826074
1742920335.867099,-1.109651,0.086315,-0.115717,0.10614,0.027084,0.044164,0.3086816720257235,0.11984799766150249,-0.10640163694826074
1742920335.9055912,-1.05286,0.074115,-0.134566,0.136152,-0.034892,0.03172,0.3086816720257235,0.11984799766150249,-0.10640163694826074
1742920335.9441624,-0.997533,0.105591,-0.16622499999999998,0.16348,-0.061732,0.006588,0.3086816720257235,0.11984799766150249,-0.10640163694826074
1742920335.9826586,-0.967216,0.134139,-0.158295,0.194224,-0.058804,0.00488,0.3086816720257235,0.11984799766150249,-0.10640163694826074
1742920336.0212214,-0.993019,0.15390299999999998,-0.143472,0.219112,-0.04758,0.030987999999999998,0.3197895352236188,0.10610932475884244,-0.14440222157263957
1742920336.060099,-0.997228,0.140605,-0.152866,0.235704,-0.024644,0.049532,0.3197895352236188,0.10610932475884244,-0.14440222157263957
1742920336.0982745,-1.006256,0.123403,-0.14036099999999999,0.248636,-0.005612,0.051972,0.3197895352236188,0.10610932475884244,-0.14440222157263957
1742920336.1367826,-0.988688,0.116449,-0.13176,0.252296,-0.0026839999999999998,0.042943999999999996,0.3197895352236188,0.10610932475884244,-0.14440222157263957
1742920336.1753097,-0.98637,0.123464,-0.14396,0.248148,-0.016592,0.037087999999999996,0.3197895352236188,0.10610932475884244,-0.14440222157263957
1742920336.213847,-0.981246,0.13908,-0.18287799999999999,0.243756,-0.024644,0.032452,0.320958783981292,0.07541654486992108,-0.17991815258696287
1742920336.2524006,-0.9484279999999999,0.160735,-0.19983599999999999,0.247172,-0.016836,0.036112,0.320958783981292,0.07541654486992108,-0.17991815258696287
1742920336.2909088,-0.948184,0.148901,-0.189527,0.25668799999999997,-0.003904,0.046604,0.320958783981292,0.07541654486992108,-0.17991815258696287
1742920336.3294375,-0.9563579999999999,0.134993,-0.18727,0.262544,0.003904,0.054168,0.320958783981292,0.07541654486992108,-0.17991815258696287
1742920336.3679914,-0.92964,0.131516,-0.18873399999999999,0.264008,0.0053679999999999995,0.056852,0.320958783981292,0.07541654486992108,-0.17991815258696287
1742920336.4070556,-0.927078,0.121573,-0.19215,0.264252,-0.000488,0.05978,0.320958783981292,0.07541654486992108,-0.17991815258696287
1742920336.4450293,-0.939949,0.127124,-0.185379,0.263764,-0.006344,0.056364,0.3218357205495469,0.026308097047646885,-0.20622624963460975
1742920336.4835644,-0.959286,0.120597,-0.185684,0.26034799999999997,-0.008784,0.05246,0.3218357205495469,0.026308097047646885,-0.20622624963460975
1742920336.5221639,-0.994544,0.090036,-0.201117,0.253028,-0.0068319999999999995,0.048312,0.3218357205495469,0.026308097047646885,-0.20622624963460975
1742920336.5606585,-1.002047,0.09113399999999999,-0.198616,0.240584,0.000244,0.043676,0.3218357205495469,0.026308097047646885,-0.20622624963460975
1742920336.5992253,-1.0248,0.082289,-0.177754,0.225944,0.009028,0.053436,0.3218357205495469,0.026308097047646885,-0.20622624963460975
1742920336.6388447,-1.049566,0.071004,-0.15420799999999998,0.207644,0.014395999999999999,0.067832,0.3259280912014031,-0.03449283835135925,-0.21543408360128619
1742920336.6762621,-1.035963,0.059414,-0.15237799999999999,0.18812399999999999,0.01464,0.073688,0.3259280912014031,-0.03449283835135925,-0.21543408360128619
1742920336.7147598,-0.988139,0.062464,-0.164639,0.17446,0.008539999999999999,0.072712,0.3259280912014031,-0.03449283835135925,-0.21543408360128619
1742920336.7532833,-1.017724,0.051606,-0.168238,0.171532,-0.0026839999999999998,0.073932,0.3259280912014031,-0.03449283835135925,-0.21543408360128619
1742920336.7918053,-1.076467,0.034709,-0.155855,0.174704,-0.003904,0.072956,0.3259280912014031,-0.03449283835135925,-0.21543408360128619
1742920336.830331,-1.105381,0.026352,-0.130113,0.183,0.00122,0.068076,0.3276819643379129,-0.08798596901490792,-0.2110494007600117
1742920336.868852,-1.065609,0.012565999999999999,-0.139507,0.185928,-0.0060999999999999995,0.05978,0.3276819643379129,-0.08798596901490792,-0.2110494007600117
1742920336.9073725,-0.989359,0.031049,-0.180804,0.179584,-0.010735999999999999,0.055388,0.3276819643379129,-0.08798596901490792,-0.2110494007600117
1742920336.9459145,-0.9545279999999999,0.043248999999999996,-0.192882,0.176656,0.003904,0.054655999999999996,0.3276819643379129,-0.08798596901490792,-0.2110494007600117
1742920336.9844477,-0.984296,0.016958,-0.174338,0.17641199999999999,0.022448,0.05734,0.3276819643379129,-0.08798596901490792,-0.2110494007600117
1742920337.0230243,-1.015772,0.0051849999999999995,-0.149145,0.177388,0.02684,0.059292,0.3276819643379129,-0.08798596901490792,-0.2110494007600117
1742920337.063402,-0.979721,0.022326,-0.13602999999999998,0.183732,0.014395999999999999,0.044896,0.3162817889505992,-0.13154048523823444,-0.20154925460391698
1742920337.1000383,-0.9250039999999999,0.045811,-0.15329299999999998,0.193004,-0.017568,0.02928,0.3162817889505992,-0.13154048523823444,-0.20154925460391698
1742920337.1385503,-0.898164,0.058193999999999996,-0.204899,0.199592,-0.049532,0.02562,0.3162817889505992,-0.13154048523823444,-0.20154925460391698
1742920337.1770735,-0.920368,0.097966,-0.250649,0.205448,-0.061,0.020739999999999998,0.3162817889505992,-0.13154048523823444,-0.20154925460391698
1742920337.215603,-0.955992,0.11376499999999999,-0.263581,0.217404,-0.04758,0.009516,0.3162817889505992,-0.13154048523823444,-0.20154925460391698
1742920337.2541213,-0.996679,0.101199,-0.25760299999999997,0.230092,-0.022935999999999998,0.013908,0.31862028646594565,-0.17129494299912307,-0.19292604501607716
1742920337.292642,-1.019615,0.08790099999999999,-0.263886,0.238144,0.009028,0.027572,0.31862028646594565,-0.17129494299912307,-0.19292604501607716
1742920337.3311725,-1.026264,0.09881999999999999,-0.24156,0.244976,0.041236,0.037087999999999996,0.31862028646594565,-0.17129494299912307,-0.19292604501607716
1742920337.3697016,-0.988139,0.07747,-0.195322,0.25498,0.06954,0.040504,0.31862028646594565,-0.17129494299912307,-0.19292604501607716
1742920337.4082158,-1.016931,0.083631,-0.128588,0.260104,0.070516,0.045384,0.31862028646594565,-0.17129494299912307,-0.19292604501607716
1742920337.4471722,-1.021567,0.081313,-0.09455,0.255712,0.044652,0.05368,0.31072785735165154,-0.2057877813504823,-0.13987138263665594
1742920337.4852798,-1.018944,0.090402,-0.088267,0.24522,-0.006344,0.050752,0.31072785735165154,-0.2057877813504823,-0.13987138263665594
1742920337.523892,-1.0793949999999999,0.08497299999999999,-0.113216,0.23668,-0.058316,0.05978,0.31072785735165154,-0.2057877813504823,-0.13987138263665594
1742920337.5623827,-1.023702,0.060756,-0.181414,0.223992,-0.08174,0.058804,0.31072785735165154,-0.2057877813504823,-0.13987138263665594
1742920337.600934,-0.959347,0.068198,-0.229482,0.20618,-0.078812,0.035136,0.31072785735165154,-0.2057877813504823,-0.13987138263665594
1742920337.6423128,-0.955809,0.085034,-0.253455,0.175436,-0.027084,0.011956,0.31072785735165154,-0.2057877813504823,-0.13987138263665594
1742920337.677945,-0.940742,0.084241,-0.253455,0.175436,-0.027084,0.011956,0.3019584916691026,-0.22595732242034494,-0.12744811458637825
1742920337.7164564,-0.897066,0.08649799999999999,-0.249856,0.157624,0.0,0.011467999999999999,0.3019584916691026,-0.22595732242034494,-0.12744811458637825
1742920337.7549806,-0.8729709999999999,0.076677,-0.250771,0.141764,0.01586,0.014395999999999999,0.3019584916691026,-0.22595732242034494,-0.12744811458637825
1742920337.7935107,-0.861625,0.076311,-0.249063,0.127368,0.017079999999999998,0.011712,0.3019584916691026,-0.22595732242034494,-0.12744811458637825
1742920337.8320317,-0.84241,0.05734,-0.266143,0.099796,-0.005612,0.007808,0.3019584916691026,-0.22595732242034494,-0.12744811458637825
1742920337.8705497,-0.869128,0.061183,-0.32817999999999997,0.090768,-0.013663999999999999,0.00122,0.3040046769950307,-0.24349605378544284,-0.10552470038000585
1742920337.9090707,-0.902922,0.068137,-0.36295,0.087108,-0.015127999999999999,-0.0017079999999999999,0.3040046769950307,-0.24349605378544284,-0.10552470038000585
1742920337.9476023,-0.977098,0.063806,-0.376736,0.08881599999999999,-0.006344,-0.00366,0.3040046769950307,-0.24349605378544284,-0.10552470038000585
1742920337.986154,-1.115629,0.056913,-0.360998,0.092476,0.012444,0.0046359999999999995,0.3040046769950307,-0.24349605378544284,-0.10552470038000585
1742920338.0247993,-1.13643,0.019215,-0.34324699999999997,0.09174399999999999,0.044652,0.009028,0.3040046769950307,-0.24349605378544284,-0.10552470038000585
1742920338.0661848,-1.162294,-0.027023,-0.301767,0.082472,0.066124,0.0075639999999999995,0.29757380882782813,-0.24174218064893305,-0.06971645717626425
1742920338.1017456,-1.205238,-0.05917,-0.236558,0.060024,0.073688,0.012444,0.29757380882782813,-0.24174218064893305,-0.06971645717626425
1742920338.1402555,-1.256295,-0.000915,-0.154574,0.034404,0.050263999999999996,0.009516,0.29757380882782813,-0.24174218064893305,-0.06971645717626425
1742920338.1787817,-1.305095,0.013359,-0.145607,0.028304,0.001464,-0.0034159999999999998,0.29757380882782813,-0.24174218064893305,-0.06971645717626425
1742920338.2173338,-1.099098,-0.030622,-0.20435,0.026352,-0.032208,-0.005856,0.29757380882782813,-0.24174218064893305,-0.06971645717626425
1742920338.2558367,-1.033279,-0.028975,-0.239608,0.022448,-0.027572,-0.0026839999999999998,0.29757380882782813,-0.24174218064893305,-0.06971645717626425
1742920338.2943547,-0.948977,-0.0068319999999999995,-0.222955,0.020496,0.009516,0.011712,0.29260450160771706,-0.2318035662087109,-0.06708564747149956
1742920338.332881,-0.854,-0.0023179999999999997,-0.203435,0.02684,0.035136,0.026595999999999998,0.29260450160771706,-0.2318035662087109,-0.06708564747149956
1742920338.3714309,-0.759145,-0.0055509999999999995,-0.20630199999999999,0.04026,0.032452,0.027816,0.29260450160771706,-0.2318035662087109,-0.06708564747149956
1742920338.409947,-0.749446,0.010187,-0.219051,0.052704,0.018543999999999998,0.01952,0.29260450160771706,-0.2318035662087109,-0.06708564747149956
1742920338.4488916,-0.793549,0.010369999999999999,-0.234728,0.059292,0.016347999999999998,0.009271999999999999,0.29260450160771706,-0.2318035662087109,-0.06708564747149956
1742920338.4869943,-0.820145,0.009333,-0.245586,0.059047999999999996,0.021471999999999998,0.0026839999999999998,0.28821981876644254,-0.2300496930722011,-0.052908506284712074
1742920338.5255647,-0.823805,-0.005124,-0.264313,0.05734,0.020739999999999998,0.005124,0.28821981876644254,-0.2300496930722011,-0.052908506284712074
1742920338.5640864,-0.826977,-0.0183,-0.301035,0.056364,0.007808,0.015372,0.28821981876644254,-0.2300496930722011,-0.052908506284712074
1742920338.6025927,-0.814655,0.021471999999999998,-0.347944,0.063684,-0.015372,0.016836,0.28821981876644254,-0.2300496930722011,-0.052908506284712074
1742920338.6411276,-0.916708,0.056974,-0.379786,0.085156,-0.0427,0.024399999999999998,0.28821981876644254,-0.2300496930722011,-0.052908506284712074
1742920338.6796577,-1.131794,0.072712,-0.359778,0.111264,-0.041968,0.046848,0.2841274481145864,-0.23677287342882197,-0.03507746273019585
1742920338.7181716,-1.224087,0.09394,-0.328424,0.127612,-0.001464,0.058316,0.2841274481145864,-0.23677287342882197,-0.03507746273019585
1742920338.7566874,-1.16937,0.123586,-0.257359,0.143716,0.03294,0.070272,0.2841274481145864,-0.23677287342882197,-0.03507746273019585
1742920338.7952735,-1.255441,0.097173,-0.154574,0.158356,0.039284,0.082228,0.2841274481145864,-0.23677287342882197,-0.03507746273019585
1742920338.8338025,-1.341878,0.077958,-0.095221,0.154452,0.020496,0.083204,0.2841274481145864,-0.23677287342882197,-0.03507746273019585
1742920338.872311,-1.18157,0.080276,-0.146583,0.144692,-0.020496,0.0915,0.2841274481145864,-0.23677287342882197,-0.03507746273019585
1742920338.9164605,-1.013759,0.136213,-0.191662,0.151524,-0.054412,0.065636,0.2753580824320374,-0.2560654779304297,-0.00482315112540193
1742920338.9526327,-0.9542229999999999,0.134078,-0.208925,0.162992,-0.066856,0.025131999999999998,0.2753580824320374,-0.2560654779304297,-0.00482315112540193
1742920338.991217,-0.906277,0.126758,-0.240279,0.15982,-0.073444,-0.0017079999999999999,0.2753580824320374,-0.2560654779304297,-0.00482315112540193
1742920339.0317118,-0.8242929999999999,0.105225,-0.275598,0.149084,-0.06539199999999999,-0.0068319999999999995,0.2753580824320374,-0.2560654779304297,-0.00482315112540193
1742920339.0691218,-0.769271,0.10126,-0.295728,0.133956,-0.03904,-0.009028,0.2753580824320374,-0.2560654779304297,-0.00482315112540193
1742920339.1076257,-0.783606,0.115046,-0.294752,0.119804,-0.009516,-0.002196,0.2738965214849459,-0.24758842443729903,0.0036539023677287343
1742920339.145424,-0.887062,0.117669,-0.293105,0.110776,0.020007999999999998,0.014884,0.2738965214849459,-0.24758842443729903,0.0036539023677287343
1742920339.1839697,-0.876387,0.103273,-0.280356,0.109068,0.052704,0.019032,0.2738965214849459,-0.24758842443729903,0.0036539023677287343
1742920339.222912,-0.8662,0.097112,-0.267607,0.113216,0.063928,0.010735999999999999,0.2738965214849459,-0.24758842443729903,0.0036539023677287343
1742920339.2618885,-0.8614419999999999,0.059109,-0.284443,0.118828,0.051484,0.0026839999999999998,0.2738965214849459,-0.24758842443729903,0.0036539023677287343
1742920339.300429,-0.978684,0.050263999999999996,-0.279807,0.121268,0.03172,-0.015127999999999999,0.2665887167494885,-0.2329728149663841,0.05100847705349313
1742920339.3389745,-1.109834,0.022692,-0.273036,0.121512,0.03172,-0.028548,0.2665887167494885,-0.2329728149663841,0.05100847705349313
1742920339.3775134,-1.0474919999999999,-0.016165,-0.279075,0.110044,0.034892,-0.015127999999999999,0.2665887167494885,-0.2329728149663841,0.05100847705349313
1742920339.4161096,-1.130635,0.015677,-0.281271,0.09028,0.018543999999999998,-0.014395999999999999,0.2665887167494885,-0.2329728149663841,0.05100847705349313
1742920339.4558966,-1.213229,0.063745,-0.284443,0.082472,0.005612,-0.002928,0.2665887167494885,-0.2329728149663841,0.05100847705349313
1742920339.4946907,-1.139541,0.052826,-0.28194199999999997,0.096624,0.006344,0.0366,0.2554808535515931,-0.21689564454837768,0.06430868167202572
1742920339.5324626,-1.065426,0.009577,-0.270779,0.11053199999999999,0.013663999999999999,0.055144,0.2554808535515931,-0.21689564454837768,0.06430868167202572
1742920339.569603,-1.0252269999999999,-0.013969,-0.220027,0.102236,0.036844,0.047092,0.2554808535515931,-0.21689564454837768,0.06430868167202572
1742920339.608126,-1.028033,-0.019215,-0.149084,0.081252,0.05734,0.04636,0.2554808535515931,-0.21689564454837768,0.06430868167202572
1742920339.6466727,-0.967521,-0.013969,-0.101992,0.062708,0.054655999999999996,0.059047999999999996,0.2554808535515931,-0.21689564454837768,0.06430868167202572
1742920339.6852303,-0.91439,-0.022509,-0.119865,0.049044,0.017568,0.080276,0.2554808535515931,-0.21689564454837768,0.06430868167202572
1742920339.7237587,-0.85095,0.02684,-0.171837,0.042456,-0.03172,0.06709999999999999,0.2516807950891552,-0.2329728149663841,0.0935399006138556
1742920339.7631164,-0.8827309999999999,0.011285,-0.23607,0.042456,-0.066612,0.044164,0.2516807950891552,-0.2329728149663841,0.0935399006138556
1742920339.8016286,-0.894504,0.022509,-0.289018,0.03904,-0.059536,0.0305,0.2516807950891552,-0.2329728149663841,0.0935399006138556
1742920339.8402028,-0.892308,0.060756,-0.285724,0.043676,-0.010248,0.043188,0.2516807950891552,-0.2329728149663841,0.0935399006138556
1742920339.8787348,-0.9250039999999999,0.064355,-0.251442,0.051484,0.034404,0.058316,0.2516807950891552,-0.2329728149663841,0.0935399006138556
1742920339.9172766,-0.9822219999999999,0.071919,-0.217343,0.057096,0.045871999999999996,0.056364,0.24641917567962585,-0.2344343759134756,0.09500146156094709
1742920339.9558184,-0.941352,0.102114,-0.24949,0.056119999999999996,0.018543999999999998,0.043188,0.24641917567962585,-0.2344343759134756,0.09500146156094709
1742920339.9943783,-0.985028,0.11651,-0.232105,0.068076,-0.00488,0.033916,0.24641917567962585,-0.2344343759134756,0.09500146156094709
1742920340.0329933,-1.244827,0.072224,-0.197091,0.0793,0.013176,0.047335999999999996,0.24641917567962585,-0.2344343759134756,0.09500146156094709
1742920340.071366,-1.093486,0.081374,-0.180377,0.066856,0.030255999999999998,0.060756,0.24641917567962585,-0.2344343759134756,0.09500146156094709
1742920340.109414,-1.021445,0.029463,-0.17202,0.055876,-0.0060999999999999995,0.059536,0.24057293189125986,-0.24174218064893305,0.11473253434668226
1742920340.1483054,-1.133075,0.080825,-0.154879,0.04758,-0.04636,0.03538,0.24057293189125986,-0.24174218064893305,0.11473253434668226
1742920340.1872694,-1.006195,0.024156,-0.17086099999999999,0.051727999999999996,-0.054655999999999996,0.011712,0.24057293189125986,-0.24174218064893305,0.11473253434668226
1742920340.2258258,-0.863333,-0.027755,-0.230702,0.034159999999999996,-0.079056,0.011956,0.24057293189125986,-0.24174218064893305,0.11473253434668226
1742920340.2636573,-0.865224,-0.0023179999999999997,-0.293288,0.00976,-0.08784,-0.00122,0.24057293189125986,-0.24174218064893305,0.11473253434668226
1742920340.3021688,-0.931592,0.055388,-0.332877,-0.00122,-0.051972,-0.011712,0.24057293189125986,-0.24174218064893305,0.11473253434668226
1742920340.3407366,-0.9137799999999999,0.092781,-0.310185,-0.000244,0.022935999999999998,-0.007808,0.24115755627009647,-0.23969599532300498,0.09500146156094709
1742920340.3792925,-0.946964,0.160247,-0.251564,-0.010492,0.077348,0.014884,0.24115755627009647,-0.23969599532300498,0.09500146156094709
1742920340.41782,-1.058106,0.041358,-0.262605,-0.020252,0.081008,0.066612,0.24115755627009647,-0.23969599532300498,0.09500146156094709
1742920340.464247,-1.017236,0.127734,-0.280478,-0.036844,0.033672,0.072468,0.24115755627009647,-0.23969599532300498,0.09500146156094709
1742920340.4970021,-1.26941,0.10065,-0.261141,-0.033916,0.07564,0.048068,0.24115755627009647,-0.23969599532300498,0.09500146156094709
1742920340.5354342,-1.2272589999999999,0.105286,-0.194834,-0.026108,0.058316,0.001952,0.22537269804150833,-0.26395790704472377,0.10859397836889799
1742920340.573125,-0.894626,0.137189,-0.234728,-0.0075639999999999995,-0.039528,-0.017079999999999998,0.22537269804150833,-0.26395790704472377,0.10859397836889799
1742920340.6106527,-0.8404579999999999,0.141825,-0.292983,0.033184,-0.090036,-0.007808,0.22537269804150833,-0.26395790704472377,0.10859397836889799
1742920340.6492224,-0.82289,0.086742,-0.345199,0.048312,-0.049044,0.013663999999999999,0.22537269804150833,-0.26395790704472377,0.10859397836889799
1742920340.6877623,-0.808555,0.204777,-0.335256,0.030987999999999998,0.011712,0.05124,0.22537269804150833,-0.26395790704472377,0.10859397836889799
1742920340.7262986,-1.084702,0.17946199999999998,-0.324398,0.00732,0.061244,0.058804,0.21835720549546916,-0.2624963460976323,0.11590178310435545
1742920340.7656035,-1.029863,0.21045,-0.294386,0.003172,0.084912,0.033672,0.21835720549546916,-0.2624963460976323,0.11590178310435545
1742920340.804173,-1.12423,0.24949,-0.267424,0.050263999999999996,0.058316,0.042212,0.21835720549546916,-0.2624963460976323,0.11590178310435545
1742920340.842726,-1.106235,0.089853,-0.255346,0.089304,0.02318,0.022448,0.21835720549546916,-0.2624963460976323,0.11590178310435545
1742920340.880527,-1.056215,0.170495,-0.288774,0.08174,-0.012199999999999999,-0.0075639999999999995,0.21835720549546916,-0.2624963460976323,0.11590178310435545
1742920340.9190838,-0.9894809999999999,0.114192,-0.287981,0.085644,-0.007808,-0.003172,0.21835720549546916,-0.2624963460976323,0.11590178310435545
1742920340.9576988,-1.016199,0.108885,-0.2501,0.06709999999999999,0.012688,-0.010003999999999999,0.2075416544869921,-0.2513884828997369,0.14484068985676704
1742920340.9969344,-0.97295,0.121146,-0.17202,0.048799999999999996,0.038064,-0.002928,0.2075416544869921,-0.2513884828997369,0.14484068985676704
1742920341.0354967,-1.000644,0.111752,-0.108763,0.03904,0.033184,0.037332,0.2075416544869921,-0.2513884828997369,0.14484068985676704
1742920341.0740962,-0.965813,0.071797,-0.088084,0.028059999999999998,0.004148,0.0366,0.2075416544869921,-0.2513884828997369,0.14484068985676704
1742920341.1126692,-0.86925,0.084546,-0.12017,0.013663999999999999,-0.035623999999999996,0.037332,0.2075416544869921,-0.2513884828997369,0.14484068985676704
1742920341.151298,-0.779946,0.09558699999999999,-0.174277,0.008052,-0.067588,0.033184,0.2095878398129202,-0.2508038585209003,0.13475591932183573
1742920341.1890535,-0.742553,0.114497,-0.204838,0.019764,-0.073688,0.017568,0.2095878398129202,-0.2508038585209003,0.13475591932183573
1742920341.2275965,-0.790377,0.085034,-0.232044,0.049776,-0.074664,0.01342,0.2095878398129202,-0.2508038585209003,0.13475591932183573
1742920341.266157,-0.812093,0.050081,-0.273402,0.069052,-0.082472,-0.010003999999999999,0.2095878398129202,-0.2508038585209003,0.13475591932183573
1742920341.305498,-0.860039,0.045689,-0.319274,0.070516,-0.091012,-0.0366,0.2095878398129202,-0.2508038585209003,0.13475591932183573
1742920341.344009,-0.949465,0.032025,-0.360571,0.06222,-0.09174399999999999,-0.052948,0.22858813212510962,-0.22683425898859982,0.12467114878690441
1742920341.3826063,-1.03883,0.028304,-0.389119,0.040748,-0.07686,-0.06417199999999999,0.22858813212510962,-0.22683425898859982,0.12467114878690441
1742920341.4211576,-1.069025,0.049104999999999996,-0.376065,0.018056,-0.030987999999999998,-0.056119999999999996,0.22858813212510962,-0.22683425898859982,0.12467114878690441
1742920341.4597332,-1.056276,0.024949,-0.33275499999999997,-0.0017079999999999999,0.0183,-0.036356,0.22858813212510962,-0.22683425898859982,0.12467114878690441
1742920341.4975276,-1.048224,0.005978,-0.27388999999999997,-0.028304,0.040992,-0.029523999999999998,0.22858813212510962,-0.22683425898859982,0.12467114878690441
1742920341.5372534,-1.12057,0.009333,-0.222467,-0.058804,0.03172,-0.026108,0.22858813212510962,-0.22683425898859982,0.12467114878690441
1742920341.5760977,-1.134417,0.043432,-0.2135,-0.091256,0.000976,-0.016592,0.24788073662671734,-0.21748026892721425,0.12452499269219526
1742920341.6132455,-1.142286,0.060024,-0.245464,-0.112972,-0.037332,-0.014884,0.24788073662671734,-0.21748026892721425,0.12452499269219526
1742920341.6518254,-1.165344,0.07015,-0.30378,-0.112484,-0.062464,-0.022448,0.24788073662671734,-0.21748026892721425,0.12452499269219526
1742920341.690381,-1.059021,0.068564,-0.33305999999999997,-0.097112,-0.055388,-0.027572,0.24788073662671734,-0.21748026892721425,0.12452499269219526
1742920341.7289226,-1.059326,0.077287,-0.31781,-0.081252,-0.032208,-0.03782,0.24788073662671734,-0.21748026892721425,0.12452499269219526
1742920341.7674627,-1.045174,0.074603,-0.276269,-0.069052,0.002928,-0.044164,0.2537269804150833,-0.22361882490499854,0.08330897398421515
1742920341.8060188,-0.9788669999999999,0.059719,-0.227347,-0.058804,0.026108,-0.052216,0.2537269804150833,-0.22361882490499854,0.08330897398421515
1742920341.844578,-0.8827309999999999,0.05246,-0.203679,-0.051727999999999996,0.019764,-0.049776,0.2537269804150833,-0.22361882490499854,0.08330897398421515
1742920341.8831441,-0.813862,0.075823,-0.226066,-0.046848,0.00122,-0.028304,0.2537269804150833,-0.22361882490499854,0.08330897398421515
1742920341.9224405,-0.805932,0.048434,-0.260409,-0.041236,-0.00366,0.003904,0.2537269804150833,-0.22361882490499854,0.08330897398421515
1742920341.960988,-0.825269,0.050447,-0.267912,-0.037087999999999996,0.010735999999999999,0.017079999999999998,0.2528500438468284,-0.22741888336743643,0.08857059339374451
1742920341.9996006,-0.851194,0.064111,-0.256261,-0.032208,0.018056,0.024156,0.2528500438468284,-0.22741888336743643,0.08857059339374451
1742920342.038129,-0.907314,0.052337999999999996,-0.26291,-0.026352,0.009516,0.029523999999999998,0.2528500438468284,-0.22741888336743643,0.08857059339374451
1742920342.0767043,-0.975756,0.070821,-0.274622,-0.020252,-0.0026839999999999998,0.029036,0.2528500438468284,-0.22741888336743643,0.08857059339374451
1742920342.1145055,-1.054751,0.04819,-0.285846,-0.012931999999999999,0.000976,0.032695999999999996,0.2528500438468284,-0.22741888336743643,0.08857059339374451
1742920342.153104,-1.076406,0.013297999999999999,-0.273524,-0.014152,0.021471999999999998,0.038551999999999996,0.2528500438468284,-0.22741888336743643,0.08857059339374451
1742920342.1916199,-1.06506,0.052032999999999996,-0.237534,-0.026595999999999998,0.032695999999999996,0.049044,0.24700380005846242,-0.2519731072785735,0.0941245249926922
1742920342.230176,-1.097939,0.077348,-0.205509,-0.033916,0.025131999999999998,0.066612,0.24700380005846242,-0.2519731072785735,0.0941245249926922
1742920342.2687304,-1.136735,0.068686,-0.167567,-0.028059999999999998,-0.004148,0.067832,0.24700380005846242,-0.2519731072785735,0.0941245249926922
1742920342.3078494,-1.200663,0.051179,-0.175009,-0.024888,-0.046116,0.039528,0.24700380005846242,-0.2519731072785735,0.0941245249926922
1742920342.3539417,-1.091778,0.10668899999999999,-0.243695,-0.026352,-0.06831999999999999,0.005612,0.24700380005846242,-0.2519731072785735,0.0941245249926922
1742920342.3851402,-1.0456619999999999,0.152256,-0.271938,-0.01098,-0.045628,-0.000244,0.24904998538439052,-0.26483484361297865,0.07337035954399299
1742920342.4229627,-1.01321,0.113887,-0.223687,0.014884,0.009028,0.010248,0.24904998538439052,-0.26483484361297865,0.07337035954399299
1742920342.46808,-0.917928,0.075701,-0.165493,0.03172,0.036844,0.0060999999999999995,0.24904998538439052,-0.26483484361297865,0.07337035954399299
1742920342.501481,-0.801967,0.047335999999999996,-0.162382,0.032208,0.021228,-0.012199999999999999,0.24904998538439052,-0.26483484361297865,0.07337035954399299
1742920342.5408301,-0.774822,0.055998,-0.190686,0.024888,-0.007076,-0.028304,0.24904998538439052,-0.26483484361297865,0.07337035954399299
1742920342.5827055,-0.804895,0.089914,-0.217465,0.0183,-0.014884,-0.029036,0.24583455130078924,-0.23940368313358668,0.07965507161648641
1742920342.6162019,-0.8651019999999999,0.111752,-0.217282,0.011467999999999999,-0.003904,-0.026352,0.24583455130078924,-0.23940368313358668,0.07965507161648641
1742920342.6543381,-0.9024949999999999,0.126575,-0.211609,0.003172,0.01342,-0.021228,0.24583455130078924,-0.23940368313358668,0.07965507161648641
1742920342.6954906,-0.892918,0.097722,-0.21490299999999998,-0.008296,0.02684,-0.01098,0.24583455130078924,-0.23940368313358668,0.07965507161648641
1742920342.7314086,-0.876082,0.053131,-0.227774,-0.017811999999999998,0.0305,-0.019275999999999998,0.24583455130078924,-0.23940368313358668,0.07965507161648641
1742920342.769936,-0.960811,0.038551999999999996,-0.224907,-0.021716,0.020739999999999998,-0.028548,0.24583455130078924,-0.23940368313358668,0.07965507161648641
1742920342.8089144,-1.116971,0.044225,-0.235521,-0.019764,0.00122,-0.0183,0.2560654779304297,-0.24291142940660626,0.08681672025723473
1742920342.8477979,-1.142896,0.060634,-0.268644,-0.010248,-0.011712,-0.020739999999999998,0.2560654779304297,-0.24291142940660626,0.08681672025723473
1742920342.886328,-1.209081,0.036722,-0.28914,-0.000732,-0.013908,-0.039772,0.2560654779304297,-0.24291142940660626,0.08681672025723473
1742920342.9248896,-1.25233,0.041846,-0.238388,-0.00122,-0.000732,-0.05246,0.2560654779304297,-0.24291142940660626,0.08681672025723473
1742920342.9634414,-1.268129,0.029096999999999998,-0.185562,-0.0060999999999999995,-0.008052,-0.063196,0.2560654779304297,-0.24291142940660626,0.08681672025723473
1742920343.0019765,-1.195783,0.011467999999999999,-0.215147,-0.009516,-0.033428,-0.056852,0.2560654779304297,-0.22888044431452792,0.07790119847997662
1742920343.0405202,-1.090558,0.004575,-0.25973799999999997,-0.016592,-0.030744,-0.029523999999999998,0.2560654779304297,-0.22888044431452792,0.07790119847997662
1742920343.079068,-1.045906,0.011712,-0.257054,-0.029036,0.076128,0.013908,0.2560654779304297,-0.22888044431452792,0.07790119847997662
1742920343.1176443,-0.9536129999999999,0.0055509999999999995,-0.209108,-0.036112,0.081008,0.01342,0.2560654779304297,-0.22888044431452792,0.07790119847997662
1742920343.156221,-0.852231,0.013297999999999999,-0.16408999999999999,-0.028548,0.050752,0.01342,0.2560654779304297,-0.22888044431452792,0.07790119847997662
1742920343.1948347,-0.798673,0.029828999999999998,-0.15914899999999998,-0.023424,0.00732,0.002928,0.2581116632563578,-0.23121894182987432,0.08637825197310728
1742920343.2331333,-0.774456,0.039284,-0.22691999999999998,-0.026352,-0.028548,0.007808,0.2581116632563578,-0.23121894182987432,0.08637825197310728
1742920343.271222,-0.897554,0.029951,-0.276818,-0.028304,-0.034892,0.018788,0.2581116632563578,-0.23121894182987432,0.08637825197310728
1742920343.3097806,-0.944646,0.047824,-0.308477,-0.032452,-0.010248,0.027327999999999998,0.2581116632563578,-0.23121894182987432,0.08637825197310728
1742920343.3490798,-0.95465,0.066246,-0.300974,-0.0305,0.024888,0.033916,0.2581116632563578,-0.23121894182987432,0.08637825197310728
1742920343.387668,-0.966789,0.044469,-0.27144999999999997,-0.025376,0.053191999999999996,0.038308,0.2581116632563578,-0.23121894182987432,0.08637825197310728
1742920343.4262247,-0.994544,0.016347999999999998,-0.231495,-0.017811999999999998,0.061975999999999996,0.03172,0.24846536100555394,-0.24583455130078924,0.08301666179479684
1742920343.4640326,-0.854,0.026962,-0.210816,-0.010735999999999999,0.03904,0.025131999999999998,0.24846536100555394,-0.24583455130078924,0.08301666179479684
1742920343.502561,-0.917074,0.0305,-0.220637,-0.00488,-0.025376,0.030744,0.24846536100555394,-0.24583455130078924,0.08301666179479684
1742920343.5412292,-1.138565,0.037393,-0.229177,-0.005856,-0.075884,0.030987999999999998,0.24846536100555394,-0.24583455130078924,0.08301666179479684
1742920343.5797143,-1.226527,0.090036,-0.255285,-0.01342,-0.06709999999999999,0.027084,0.24846536100555394,-0.24583455130078924,0.08301666179479684
1742920343.6195772,-1.1451529999999999,0.11895,-0.247721,-0.01464,-0.020007999999999998,0.037576,0.24641917567962585,-0.2645425314235604,0.07161648640748319
1742920343.6584024,-1.101294,0.10992199999999999,-0.169336,-0.0060999999999999995,0.026595999999999998,0.018788,0.24641917567962585,-0.2645425314235604,0.07161648640748319
1742920343.6965938,-1.053287,0.111508,-0.122427,-0.00122,0.027327999999999998,0.001952,0.24641917567962585,-0.2645425314235604,0.07161648640748319
1742920343.733967,-0.9727669999999999,0.097539,-0.178303,0.0026839999999999998,-0.005612,-0.002928,0.24641917567962585,-0.2645425314235604,0.07161648640748319
1742920343.774911,-0.834602,0.087291,-0.296155,0.012199999999999999,-0.037332,-0.022692,0.24641917567962585,-0.2645425314235604,0.07161648640748319
1742920343.811046,-0.687775,0.079788,-0.419436,0.022692,-0.068076,-0.038308,0.24963460976322713,-0.2540192926045016,0.06591639871382636
1742920343.849613,-0.6700849999999999,0.085217,-0.571387,0.024888,-0.11834,-0.029523999999999998,0.24963460976322713,-0.2540192926045016,0.06591639871382636
1742920343.8884113,-0.8994449999999999,0.067954,-0.688385,0.020739999999999998,-0.135176,-0.005612,0.24963460976322713,-0.2540192926045016,0.06591639871382636
1742920343.926741,-1.121851,0.078568,-0.56364,0.02196,-0.047824,0.000732,0.24963460976322713,-0.2540192926045016,0.06591639871382636
1742920343.966038,-1.2505,0.087596,-0.324764,0.017079999999999998,0.108336,0.0,0.24963460976322713,-0.2540192926045016,0.06591639871382636
1742920344.0045834,-1.258003,0.080947,-0.091805,0.003172,0.23033599999999999,-0.028791999999999998,0.24963460976322713,-0.2540192926045016,0.06591639871382636
1742920344.0431907,-1.17913,0.105591,0.031903,-0.02684,0.273768,-0.043432,0.24057293189125986,-0.24320374159602456,0.08754750073078048
1742920344.081727,-1.076894,0.063135,0.035318999999999996,-0.081496,0.221552,-0.007808,0.24057293189125986,-0.24320374159602456,0.08754750073078048
1742920344.1202862,-1.106662,0.179523,0.301767,-0.103944,0.096868,-0.000976,0.24057293189125986,-0.24320374159602456,0.08754750073078048
1742920344.1580875,-0.8121539999999999,0.088145,0.247111,-0.008296,0.19178399999999998,0.03172,0.24057293189125986,-0.24320374159602456,0.08754750073078048
1742920344.1966848,-0.723033,0.013663999999999999,0.198616,0.008539999999999999,0.058804,-0.000244,0.24057293189125986,-0.24320374159602456,0.08754750073078048
1742920344.2352035,-0.701744,0.07381,-0.040687,0.024156,-0.097356,-0.01586,0.2300496930722011,-0.23092662964045602,0.15551008477053493
1742920344.273811,-1.089582,-0.018971,-0.26034799999999997,0.031476,-0.174948,-0.01342,0.2300496930722011,-0.23092662964045602,0.15551008477053493
1742920344.312329,-1.189927,0.010309,-0.31738299999999997,0.033428,-0.104432,0.006344,0.2300496930722011,-0.23092662964045602,0.15551008477053493
1742920344.350951,-1.087142,0.003965,-0.314272,0.037332,-0.036112,0.028548,0.2300496930722011,-0.23092662964045602,0.15551008477053493
1742920344.390235,-0.897493,-0.020007999999999998,-0.43877299999999997,0.042943999999999996,-0.040748,0.023912,0.2300496930722011,-0.23092662964045602,0.15551008477053493
1742920344.428756,-0.878644,0.020862,-0.404613,0.022935999999999998,-0.122488,0.021716,0.24583455130078924,-0.21601870798012276,0.12686349020754165
1742920344.4673126,-0.910242,0.026474,-0.404918,0.014395999999999999,-0.091988,0.009516,0.24583455130078924,-0.21601870798012276,0.12686349020754165
1742920344.505912,-0.925553,0.054412,-0.399306,0.009028,-0.058316,0.010003999999999999,0.24583455130078924,-0.21601870798012276,0.12686349020754165
1742920344.5444207,-0.876143,0.06954,-0.35556899999999997,0.005856,-0.022203999999999998,0.016347999999999998,0.24583455130078924,-0.21601870798012276,0.12686349020754165
1742920344.5829701,-0.898591,0.07686,-0.3172,0.010003999999999999,0.001464,0.017811999999999998,0.24583455130078924,-0.21601870798012276,0.12686349020754165
1742920344.6215987,-0.865468,0.075152,-0.304512,0.020007999999999998,-0.0075639999999999995,0.02562,0.24583455130078924,-0.22215726395790705,0.1039169833382052
1742920344.6601093,-0.960445,0.046726,-0.316834,0.032695999999999996,-0.032452,0.033184,0.24524992692195263,-0.22215726395790705,0.1039169833382052
1742920344.7031562,-1.032181,0.075457,-0.33244999999999997,0.041968,-0.032695999999999996,0.025863999999999998,0.24524992692195263,-0.22215726395790705,0.1039169833382052
1742920344.7384756,-1.065304,0.127856,-0.327082,0.04758,-0.020007999999999998,0.026108,0.24524992692195263,-0.22215726395790705,0.1039169833382052
1742920344.776294,-1.103551,0.09211,-0.30567099999999997,0.049044,-0.007808,0.038064,0.24524992692195263,-0.22215726395790705,0.1039169833382052
1742920344.8136075,-1.111786,0.050386,-0.27053499999999997,0.041724,-0.000488,0.026108,0.24524992692195263,-0.22215726395790705,0.1039169833382052
1742920344.852175,-1.072868,0.022875,-0.257786,0.026352,-0.00122,-0.001952,0.2519731072785735,-0.22478807366267173,0.10844782227418884
1742920344.8914726,-0.978928,0.033733,-0.264191,0.008052,-0.0060999999999999995,-0.017811999999999998,0.2519731072785735,-0.22478807366267173,0.10844782227418884
1742920344.9300056,-0.923662,0.062403,-0.282979,-0.005124,-0.000488,-0.011956,0.2519731072785735,-0.22478807366267173,0.10844782227418884
1742920344.9686096,-0.8839509999999999,0.07991,-0.286517,-0.011712,0.016104,-0.010248,0.2519731072785735,-0.22478807366267173,0.10844782227418884
1742920345.0071468,-0.885415,0.10022299999999999,-0.271633,-0.016347999999999998,0.0305,-0.0075639999999999995,0.2519731072785735,-0.22478807366267173,0.10844782227418884
1742920345.0457041,-0.861503,0.098271,-0.253638,-0.017568,0.038796,-0.005124,0.24729611224788073,-0.22391113709441685,0.11765565624086524
1742920345.0842726,-0.893162,0.09759999999999999,-0.24973399999999998,-0.020984,0.032695999999999996,-0.004148,0.24729611224788073,-0.22391113709441685,0.11765565624086524
1742920345.1228404,-0.892247,0.111203,-0.254553,-0.02318,0.026352,-0.01586,0.24729611224788073,-0.22391113709441685,0.11765565624086524
1742920345.1613855,-0.892857,0.113094,-0.26535,-0.023912,0.019764,-0.019764,0.24729611224788073,-0.22391113709441685,0.11765565624086524
1742920345.1992745,-0.886269,0.108458,-0.292678,-0.024399999999999998,0.0183,-0.012444,0.24729611224788073,-0.22391113709441685,0.11765565624086524
1742920345.2377803,-0.8894409999999999,0.13047899999999998,-0.3111,-0.023912,0.024888,-0.01586,0.253434668225665,-0.22244957614732536,0.12686349020754165
1742920345.276635,-1.0349869999999999,0.132065,-0.299327,-0.017811999999999998,0.030255999999999998,-0.017079999999999998,0.253434668225665,-0.22244957614732536,0.12686349020754165
1742920345.3229892,-1.095133,0.089914,-0.289018,-0.011712,0.039528,-0.015372,0.253434668225665,-0.22244957614732536,0.12686349020754165
1742920345.3542144,-0.9767319999999999,0.055876,-0.291031,-0.011224,0.038308,-0.018056,0.253434668225665,-0.22244957614732536,0.12686349020754165
1742920345.3927484,-1.065731,0.041236,-0.268827,-0.019275999999999998,0.010735999999999999,-0.020984,0.253434668225665,-0.22244957614732536,0.12686349020754165
1742920345.4386575,-1.1898659999999999,0.051301,-0.247416,-0.030012,-0.018543999999999998,-0.01464,0.253434668225665,-0.22244957614732536,0.12686349020754165
1742920345.469907,-1.048956,0.028548,-0.258579,-0.035868,-0.040992,0.018056,0.24671148786904415,-0.22508038585209003,0.11677871967261035
1742920345.5095053,-1.0368169999999999,0.008723,-0.288957,-0.040015999999999996,-0.056852,0.011712,0.24671148786904415,-0.22508038585209003,0.11677871967261035
1742920345.548106,-1.049505,0.006771,-0.28102699999999997,-0.046604,-0.044896,-0.0026839999999999998,0.24671148786904415,-0.22508038585209003,0.11677871967261035
1742920345.5861235,-1.026203,0.01647,-0.230214,-0.052216,-0.018056,-0.007808,0.24671148786904415,-0.22508038585209003,0.11677871967261035
1742920345.6233165,-0.980331,0.022082,-0.20435,-0.053191999999999996,0.0046359999999999995,-0.002928,0.24671148786904415,-0.22508038585209003,0.11677871967261035
1742920345.6695714,-0.870287,0.024399999999999998,-0.20813199999999998,-0.048068,0.009516,0.0034159999999999998,0.2554808535515931,-0.2282958199356913,0.10070154925460392
1742920345.7004888,-0.855586,0.051484,-0.22326,-0.038551999999999996,0.005856,-0.000488,0.2554808535515931,-0.2282958199356913,0.10070154925460392
1742920345.7390022,-0.8741909999999999,0.033062,-0.24851399999999998,-0.028304,0.01464,0.0026839999999999998,0.2554808535515931,-0.2282958199356913,0.10070154925460392
1742920345.7844064,-0.854366,0.036356,-0.271206,-0.017079999999999998,0.023912,-0.006344,0.2554808535515931,-0.2282958199356913,0.10070154925460392
1742920345.816862,-0.87169,0.09406199999999999,-0.287066,-0.006588,0.020007999999999998,0.012444,0.2554808535515931,-0.2282958199356913,0.10070154925460392
1742920345.8554134,-0.9638,0.09729499999999999,-0.295972,0.004392,0.019275999999999998,0.031476,0.2513884828997369,-0.24378836597486114,0.11283250511546332
1742920345.9004514,-1.071831,0.0793,-0.274866,0.009271999999999999,0.022203999999999998,0.028791999999999998,0.2513884828997369,-0.24378836597486114,0.11283250511546332
1742920345.9318435,-1.112823,0.10187,-0.292983,0.007076,0.012199999999999999,0.01952,0.2513884828997369,-0.24378836597486114,0.11283250511546332
1742920345.9703872,-1.097024,0.136152,-0.296643,0.009271999999999999,-0.009271999999999999,0.028304,0.2513884828997369,-0.24378836597486114,0.11283250511546332
1742920346.0172367,-1.148813,0.095099,-0.271267,0.012931999999999999,-0.014884,0.037576,0.2513884828997369,-0.24378836597486114,0.11283250511546332
1742920346.0482652,-1.080737,0.030866,-0.256566,0.0060999999999999995,-0.011224,0.02562,0.2513884828997369,-0.24378836597486114,0.11283250511546332
1742920346.0868137,-0.9307989999999999,0.047214,-0.27877,-0.011712,-0.016347999999999998,0.0053679999999999995,0.24700380005846242,-0.24583455130078924,0.1045016077170418
1742920346.1313028,-0.933483,0.063989,-0.286883,-0.021228,-0.0183,0.001464,0.24700380005846242,-0.24583455130078924,0.1045016077170418
1742920346.163191,-0.961177,0.064233,-0.24387799999999998,-0.020252,0.00366,-0.010003999999999999,0.24700380005846242,-0.24583455130078924,0.1045016077170418
1742920346.2017665,-0.969961,0.050873999999999996,-0.20660699999999999,-0.020252,0.014884,-0.026595999999999998,0.24700380005846242,-0.24583455130078924,0.1045016077170418
1742920346.2467434,-0.8708359999999999,0.024278,-0.217526,-0.029036,0.0053679999999999995,-0.036112,0.24700380005846242,-0.24583455130078924,0.1045016077170418
1742920346.2788854,-0.824781,0.034648,-0.254187,-0.043676,-0.009271999999999999,-0.043188,0.23501900029231218,-0.23940368313358668,0.10742472961122479
1742920346.3181658,-0.850096,0.053436,-0.277306,-0.055632,-0.006344,-0.044652,0.23501900029231218,-0.23940368313358668,0.10742472961122479
1742920346.3617449,-0.8614419999999999,0.070699,-0.279014,-0.064416,0.013176,-0.044407999999999996,0.23501900029231218,-0.23940368313358668,0.10742472961122479
1742920346.3953671,-0.9134749999999999,0.063501,-0.277123,-0.073688,0.027816,-0.043188,0.23501900029231218,-0.23940368313358668,0.10742472961122479
1742920346.4338257,-0.968741,0.07063799999999999,-0.290665,-0.085644,0.035136,-0.046116,0.23501900029231218,-0.23940368313358668,0.10742472961122479
1742920346.484766,-1.007659,0.077287,-0.29243399999999997,-0.098332,0.040992,-0.050508,0.24846536100555394,-0.2332651271558024,0.09967845659163987
1742920346.5123863,-1.085312,0.087962,-0.289018,-0.107848,0.041236,-0.049776,0.24846536100555394,-0.2332651271558024,0.09967845659163987
1742920346.5505815,-1.044991,0.085827,-0.318176,-0.11516799999999999,0.025376,-0.038796,0.24846536100555394,-0.2332651271558024,0.09967845659163987
1742920346.5947511,-1.061888,0.08356999999999999,-0.320555,-0.11516799999999999,0.002928,-0.033916,0.24846536100555394,-0.2332651271558024,0.09967845659163987
1742920346.625893,-1.164612,0.093635,-0.26900999999999997,-0.110288,-0.015127999999999999,-0.044164,0.24846536100555394,-0.2332651271558024,0.09967845659163987
1742920346.6644008,-1.262029,0.078202,-0.243024,-0.100284,-0.027572,-0.033672,0.24846536100555394,-0.2332651271558024,0.09967845659163987
1742920346.7075315,-0.9943,0.019215,-0.260531,-0.088328,-0.019764,-0.014152,0.2569424144986846,-0.23998830751242325,0.07717041800643087
1742920346.741544,-0.8601,0.04697,-0.255956,-0.082472,-0.017079999999999998,-0.021228,0.2569424144986846,-0.23998830751242325,0.07717041800643087
1742920346.7800863,-0.915,0.053741,-0.2501,-0.080276,-0.012931999999999999,-0.015616,0.2569424144986846,-0.23998830751242325,0.07717041800643087
1742920346.822256,-0.91561,0.106506,-0.242597,-0.071736,-0.00122,0.00244,0.2569424144986846,-0.23998830751242325,0.07717041800643087
1742920346.8579323,-0.9333,0.104493,-0.247965,-0.049776,0.001952,0.022935999999999998,0.2569424144986846,-0.23998830751242325,0.07717041800643087
1742920346.8964703,-0.88145,0.058987,-0.256322,-0.025376,0.011956,0.009028,0.2572347266881029,-0.24612686349020754,0.05904706226249635
1742920346.9373527,-0.7984289999999999,0.04819,-0.246745,-0.008052,0.021716,-0.020252,0.2572347266881029,-0.24612686349020754,0.05904706226249635
1742920346.973563,-0.782447,0.070394,-0.253638,0.000732,0.010735999999999999,-0.019032,0.2572347266881029,-0.24612686349020754,0.05904706226249635
1742920347.0121334,-0.825635,0.075945,-0.273097,0.009028,-0.011224,-0.00488,0.2572347266881029,-0.24612686349020754,0.05904706226249635
1742920347.0524256,-0.88084,0.095221,-0.292251,0.020984,-0.025131999999999998,0.0068319999999999995,0.2572347266881029,-0.24612686349020754,0.05904706226249635
1742920347.089205,-0.964959,0.094184,-0.29761899999999997,0.034892,-0.03294,0.027816,0.2610347851505408,-0.24320374159602456,0.05539315989476761
1742920347.1277516,-1.115019,0.101992,-0.293471,0.048068,-0.033916,0.040992,0.2610347851505408,-0.24320374159602456,0.05539315989476761
1742920347.167524,-1.0964749999999999,0.128588,-0.291458,0.063196,-0.020984,0.034404,0.2610347851505408,-0.24320374159602456,0.05539315989476761
1742920347.204918,-1.0943399999999999,0.190137,-0.283711,0.076372,-0.027327999999999998,0.038308,0.2610347851505408,-0.24320374159602456,0.05539315989476761
1742920347.2427387,-1.154364,0.194956,-0.266631,0.088328,-0.038796,0.06222,0.2610347851505408,-0.24320374159602456,0.05539315989476761
1742920347.28125,-1.18035,0.144692,-0.249551,0.094428,-0.046604,0.077836,0.2610347851505408,-0.24320374159602456,0.05539315989476761
1742920347.3198636,-1.070367,0.136152,-0.2806,0.090036,-0.044164,0.070272,0.2578193510669395,-0.2595732242034493,0.06328558900906167
1742920347.3590846,-0.9971059999999999,0.159942,-0.294935,0.096136,-0.025376,0.052704,0.2578193510669395,-0.2595732242034493,0.06328558900906167
1742920347.397623,-0.998997,0.114192,-0.256017,0.116876,0.010248,0.035136,0.2578193510669395,-0.2595732242034493,0.06328558900906167
1742920347.4362392,-0.954406,0.084058,-0.217526,0.12932,0.033184,0.021471999999999998,0.2578193510669395,-0.2595732242034493,0.06328558900906167
1742920347.4747663,-0.819657,0.0549,-0.222711,0.132248,0.029768,0.009028,0.2578193510669395,-0.2595732242034493,0.06328558900906167
1742920347.520759,-0.763964,0.028975,-0.255285,0.128588,0.006588,-0.012199999999999999,0.2502192341420637,-0.23531131248173048,0.08842443729903537
1742920347.5534468,-0.769576,0.039162,-0.28487,0.12078,-0.008539999999999999,-0.036112,0.2502192341420637,-0.23531131248173048,0.08842443729903537
1742920347.5915413,-0.831979,0.064965,-0.30506099999999997,0.11223999999999999,-0.005612,-0.040992,0.2502192341420637,-0.23531131248173048,0.08842443729903537
1742920347.6295133,-0.942511,0.044042,-0.321897,0.102724,0.008296,-0.049532,0.2502192341420637,-0.23531131248173048,0.08842443729903537
1742920347.666898,-0.890722,-0.005307,-0.332938,0.085644,0.0366,-0.06709999999999999,0.2502192341420637,-0.23531131248173048,0.08842443729903537
1742920347.705428,-0.931775,0.033549999999999996,-0.309087,0.059047999999999996,0.049776,-0.07442,0.2508038585209003,-0.20491084478222743,0.12335574393452207
1742920347.7440188,-1.1219729999999999,0.037027,-0.285724,0.04026,0.05978,-0.056608,0.2508038585209003,-0.20491084478222743,0.12335574393452207
1742920347.782558,-0.996557,-0.046482,-0.271999,0.026352,0.07124799999999999,-0.030744,0.2508038585209003,-0.20491084478222743,0.12335574393452207
1742920347.8210871,-1.03273,-0.063013,-0.23058,0.008539999999999999,0.045628,-0.0183,0.2508038585209003,-0.20491084478222743,0.12335574393452207
1742920347.8603961,-1.207922,-0.066368,-0.19215,-0.012688,0.010492,0.001952,0.2508038585209003,-0.20491084478222743,0.12335574393452207
1742920347.898981,-1.24074,-0.053436,-0.167689,-0.02928,-0.01952,0.020252,0.2508038585209003,-0.20491084478222743,0.12335574393452207
1742920347.937544,-1.116849,-0.071675,-0.18903899999999998,-0.037332,-0.052704,0.026595999999999998,0.2569424144986846,-0.19877228880444314,0.11999415375621163
1742920347.9760559,-1.0870199999999999,-0.074969,-0.217282,-0.044896,-0.0732,0.011712,0.2569424144986846,-0.19877228880444314,0.11999415375621163
1742920348.0146189,-1.086654,-0.078324,-0.223199,-0.051484,-0.057583999999999996,-0.00732,0.2569424144986846,-0.19877228880444314,0.11999415375621163
1742920348.053192,-1.023763,-0.075884,-0.19580999999999998,-0.055876,-0.026595999999999998,-0.00976,0.2569424144986846,-0.19877228880444314,0.11999415375621163
1742920348.091759,-0.8620519999999999,-0.083082,-0.163602,-0.053924,-0.017079999999999998,-0.006344,0.2569424144986846,-0.19877228880444314,0.11999415375621163
1742920348.130309,-0.836676,0.011285,-0.170678,-0.04636,-0.05246,-0.00366,0.26951183864367145,-0.2075416544869921,0.09690149079216603
1742920348.1688871,-0.771528,0.036051,-0.200507,-0.025863999999999998,-0.080276,-0.0075639999999999995,0.26951183864367145,-0.2075416544869921,0.09690149079216603
1742920348.2074366,-0.84424,0.02745,-0.25071,-0.016592,-0.098088,-0.008052,0.26951183864367145,-0.2075416544869921,0.09690149079216603
1742920348.2460577,-0.7917799999999999,0.026962,-0.296277,-0.0053679999999999995,-0.087352,0.010735999999999999,0.26951183864367145,-0.2075416544869921,0.09690149079216603
1742920348.2838085,-0.866688,-0.007625,-0.326777,0.009028,-0.07198,0.033184,0.26951183864367145,-0.2075416544869921,0.09690149079216603
1742920348.3223279,-0.93574,0.031049,-0.341905,0.013663999999999999,-0.06222,0.041236,0.2765273311897106,-0.21748026892721425,0.0698626132709734
1742920348.3613176,-1.042856,-0.0055509999999999995,-0.32208,0.018056,-0.043432,0.040015999999999996,0.2765273311897106,-0.21748026892721425,0.0698626132709734
1742920348.4002702,-1.117886,0.015677,-0.303231,0.026595999999999998,-0.0068319999999999995,0.027572,0.2765273311897106,-0.21748026892721425,0.0698626132709734
1742920348.4414208,-1.108065,0.071187,-0.283284,0.061244,0.0427,0.039284,0.2765273311897106,-0.21748026892721425,0.0698626132709734
1742920348.4789274,-1.1344779999999999,0.078568,-0.24820899999999999,0.074908,0.037576,0.039284,0.2765273311897106,-0.21748026892721425,0.0698626132709734
1742920348.517457,-1.2303089999999999,0.020739999999999998,-0.195688,0.056119999999999996,0.020496,0.018056,0.2765273311897106,-0.21748026892721425,0.0698626132709734
1742920348.5544624,-1.226527,0.015433,-0.185074,0.024888,-0.016836,0.01342,0.26483484361297865,-0.22069570301081556,0.08272434960537854
1742920348.5922801,-1.127341,0.075274,-0.243756,0.015372,-0.022692,0.016104,0.26483484361297865,-0.22069570301081556,0.08272434960537854
1742920348.6308086,-0.986553,0.10607899999999999,-0.227896,0.02318,0.010248,0.003904,0.26483484361297865,-0.22069570301081556,0.08272434960537854
1742920348.6701283,-0.933178,0.068991,-0.190686,0.030744,0.042943999999999996,-0.004148,0.26483484361297865,-0.22069570301081556,0.08272434960537854
1742920348.708693,-0.7847649999999999,0.042395,-0.161101,0.033672,0.061732,-0.0068319999999999995,0.26483484361297865,-0.22069570301081556,0.08272434960537854
1742920348.747282,-0.742919,0.022082,-0.148596,0.035868,0.064904,-0.012444,0.26600409237065187,-0.20841859105524702,0.1036246711487869
1742920348.7850523,-0.759084,0.015433,-0.159881,0.034648,0.05856,-0.016836,0.26600409237065187,-0.20841859105524702,0.1036246711487869
1742920348.8236,-0.777628,0.017324,-0.183366,0.028548,0.050508,-0.011956,0.26600409237065187,-0.20841859105524702,0.1036246711487869
1742920348.8622055,-0.838079,0.033489,-0.234362,0.022692,0.045384,-0.017811999999999998,0.26600409237065187,-0.20841859105524702,0.1036246711487869
1742920348.9014742,-0.87596,0.07387099999999999,-0.291397,0.0060999999999999995,0.03904,-0.020007999999999998,0.26600409237065187,-0.20841859105524702,0.1036246711487869
1742920348.9399962,-1.0310219999999999,0.076128,-0.30506099999999997,-0.011467999999999999,0.029036,0.0,0.26015784858228586,-0.20374159602455422,0.11794796843028355
1742920348.9785311,-1.1730909999999999,0.053131,-0.30536599999999997,-0.01952,0.041236,0.00732,0.26015784858228586,-0.20374159602455422,0.11794796843028355
1742920349.0170786,-1.182729,-0.043188,-0.28621199999999997,-0.027816,0.056364,0.003172,0.26015784858228586,-0.20374159602455422,0.11794796843028355
1742920349.0557306,-1.250378,-0.072224,-0.250283,-0.044896,0.058804,-0.020739999999999998,0.26015784858228586,-0.20374159602455422,0.11794796843028355
1742920349.094199,-1.243729,-0.055815,-0.207095,-0.066612,0.05368,-0.03904,0.26015784858228586,-0.20374159602455422,0.11794796843028355
1742920349.1327426,-1.172115,-0.019703,-0.196481,-0.08174,0.028059999999999998,-0.03172,0.26015784858228586,-0.20374159602455422,0.11794796843028355
1742920349.171375,-1.087996,-0.001586,-0.229055,-0.088084,-0.009271999999999999,-0.017079999999999998,0.2516807950891552,-0.21981876644256065,0.13680210464776382
1742920349.2099254,-1.010282,-0.011101999999999999,-0.262605,-0.09028,-0.010003999999999999,0.000244,0.2516807950891552,-0.21981876644256065,0.13680210464776382
1742920349.2484958,-0.900238,-0.032025,-0.251869,-0.0915,0.012199999999999999,0.028304,0.2516807950891552,-0.21981876644256065,0.13680210464776382
1742920349.2862873,-0.7911699999999999,-0.027877,-0.236131,-0.092232,0.012199999999999999,0.04758,0.2516807950891552,-0.21981876644256065,0.13680210464776382
1742920349.3248417,-0.841495,-0.030683,-0.251991,-0.089304,-0.0034159999999999998,0.0427,0.2516807950891552,-0.21981876644256065,0.13680210464776382
1742920349.363393,-0.794464,0.015555,-0.24448799999999998,-0.07808,-0.012199999999999999,0.0060999999999999995,0.2540192926045016,-0.2356036246711488,0.11444022215726396
1742920349.4084706,-0.7549359999999999,0.06478199999999999,-0.235216,-0.060024,-0.025131999999999998,-0.023667999999999998,0.2540192926045016,-0.2356036246711488,0.11444022215726396
1742920349.4404867,-0.7585959999999999,0.056119999999999996,-0.251015,-0.034159999999999996,-0.051484,-0.041724,0.2540192926045016,-0.2356036246711488,0.11444022215726396
1742920349.4808757,-0.840885,0.08662,-0.284138,-0.0034159999999999998,-0.086132,-0.05246,0.2540192926045016,-0.2356036246711488,0.11444022215726396
1742920349.5196114,-0.8957849999999999,0.09516,-0.326899,0.023667999999999998,-0.10004,-0.049044,0.2540192926045016,-0.2356036246711488,0.11444022215726396
1742920349.558377,-1.018822,0.078568,-0.352641,0.041724,-0.07808,-0.021716,0.26834258988599824,-0.21864951768488747,0.08930137386729027
1742920349.5947156,-1.132892,0.040077,-0.328424,0.046116,-0.028548,0.014884,0.26834258988599824,-0.21864951768488747,0.08930137386729027
1742920349.6332853,-1.092022,0.052948,-0.285968,0.04026,0.0183,0.029768,0.26834258988599824,-0.21864951768488747,0.08930137386729027
1742920349.6719253,-1.076162,0.111813,-0.251442,0.040504,0.017079999999999998,0.047092,0.26834258988599824,-0.21864951768488747,0.08930137386729027
1742920349.7113829,-1.204933,0.113399,-0.228262,0.056852,-0.017079999999999998,0.073444,0.26834258988599824,-0.21864951768488747,0.08930137386729027
1742920349.757116,-1.298507,0.0549,-0.20380099999999998,0.067588,-0.030744,0.06588,0.26278865828705056,-0.22274188833674363,0.09587839812920199
1742920349.7877505,-1.178764,0.043554,-0.21185299999999999,0.059292,-0.017324,0.025863999999999998,0.26278865828705056,-0.22274188833674363,0.09587839812920199
1742920349.826081,-1.06445,0.072224,-0.211975,0.051727999999999996,-0.0060999999999999995,0.0075639999999999995,0.26278865828705056,-0.22274188833674363,0.09587839812920199
1742920349.8711917,-1.020774,0.067832,-0.194773,0.053924,0.012931999999999999,0.003904,0.26278865828705056,-0.22274188833674363,0.09587839812920199
1742920349.903959,-0.955504,0.043066,-0.176656,0.056119999999999996,0.03172,0.005856,0.26278865828705056,-0.22274188833674363,0.09587839812920199
1742920349.9425032,-0.830332,0.010309,-0.176839,0.05246,0.033184,0.000976,0.26278865828705056,-0.22274188833674363,0.09587839812920199
1742920349.9884264,-0.7327319999999999,0.01342,-0.182695,0.043432,0.022203999999999998,-0.015616,0.2543116047939199,-0.21660333235895937,0.11648640748319206
1742920350.0196426,-0.723826,0.019886,-0.193492,0.033184,0.007076,-0.021228,0.2543116047939199,-0.21660333235895937,0.11648640748319206
1742920350.0581727,-0.778787,0.019642,-0.206485,0.022203999999999998,-0.005124,-0.01586,0.2543116047939199,-0.21660333235895937,0.11648640748319206
1742920350.1030147,-0.855525,0.016714,-0.235338,0.010248,-0.01586,-0.020984,0.2543116047939199,-0.21660333235895937,0.11648640748319206
1742920350.1345584,-0.918172,0.00183,-0.287737,-0.004392,-0.028791999999999998,-0.028548,0.2543116047939199,-0.21660333235895937,0.11648640748319206
1742920350.1731524,-0.927505,-0.027327999999999998,-0.351055,-0.02318,-0.036356,-0.033672,0.2712657117801812,-0.20286465945629933,0.10347851505407775
1742920350.2182868,-0.9733769999999999,-0.022021,-0.397598,-0.04758,-0.034404,-0.045384,0.2712657117801812,-0.20286465945629933,0.10347851505407775
1742920350.2502482,-1.108614,0.012627,-0.418582,-0.067588,-0.010492,-0.032452,0.2712657117801812,-0.20286465945629933,0.10347851505407775
1742920350.2887747,-1.204933,0.000915,-0.396805,-0.069784,0.039772,-0.010492,0.2712657117801812,-0.20286465945629933,0.10347851505407775
1742920350.3338614,-1.266543,0.037576,-0.29456899999999997,-0.063684,0.089792,-0.016104,0.2712657117801812,-0.20286465945629933,0.10347851505407775
1742920350.3658926,-1.2566,0.054655999999999996,-0.2013,-0.055632,0.11053199999999999,0.00122,0.2712657117801812,-0.20286465945629933,0.10347851505407775
1742920350.405212,-1.1901709999999999,0.032635,-0.144082,-0.039284,0.08174,0.017811999999999998,0.2610347851505408,-0.2078339666764104,0.12233265127155803
1742920350.4587023,-1.106174,0.008418,-0.14005599999999999,-0.017811999999999998,-0.01342,0.015616,0.2610347851505408,-0.2078339666764104,0.12233265127155803
1742920350.483819,-0.956785,-0.012383,-0.174094,-0.017811999999999998,-0.01342,0.015616,0.2610347851505408,-0.2078339666764104,0.12233265127155803
1742920350.5220754,-0.916891,-0.010003999999999999,-0.200324,-0.016104,-0.038308,0.022203999999999998,0.2610347851505408,-0.2078339666764104,0.12233265127155803
1742920350.560797,-0.926956,0.012688,-0.211121,-0.017811999999999998,-0.035868,0.024888,0.2610347851505408,-0.2078339666764104,0.12233265127155803
1742920350.5979843,-0.866749,0.030927,-0.21594,-0.018788,-0.019764,0.028791999999999998,0.253434668225665,-0.21835720549546916,0.10669394913767904
1742920350.6357417,-0.773968,0.06539199999999999,-0.219417,-0.01342,-0.013908,0.0305,0.253434668225665,-0.21835720549546916,0.10669394913767904
1742920350.6743133,-0.74298,0.095221,-0.233569,0.001464,-0.025376,0.025376,0.253434668225665,-0.21835720549546916,0.10669394913767904
1742920350.713366,-0.7762249999999999,0.074847,-0.265899,0.018543999999999998,-0.036844,0.020496,0.253434668225665,-0.21835720549546916,0.10669394913767904
1742920350.7541804,-0.8239879999999999,0.079605,-0.290909,0.033184,-0.042943999999999996,0.012199999999999999,0.253434668225665,-0.21835720549546916,0.10669394913767904
1742920350.7999458,-0.897188,0.074908,-0.31890799999999997,0.046116,-0.041968,0.014395999999999999,0.2569424144986846,-0.22011107863197896,0.10333235895936861
1742920350.8288836,-0.940498,0.082777,-0.337452,0.060024,-0.030255999999999998,0.02196,0.2569424144986846,-0.22011107863197896,0.10333235895936861
1742920350.867421,-1.0334619999999999,0.085095,-0.311039,0.079544,-0.013663999999999999,0.026352,0.2569424144986846,-0.22011107863197896,0.10333235895936861
1742920350.91085,-1.099098,0.055083,-0.28011199999999997,0.095404,0.006588,0.022448,0.2569424144986846,-0.22011107863197896,0.10333235895936861
1742920350.946751,-1.058106,0.052886999999999997,-0.268522,0.095404,0.006588,0.022448,0.2569424144986846,-0.22011107863197896,0.10333235895936861
1742920350.9852827,-1.056093,0.076067,-0.257237,0.098088,-0.010003999999999999,0.019032,0.2610347851505408,-0.21718795673779598,0.12072493422975739
1742920351.029587,-1.093852,0.058133,-0.217404,0.08784,-0.038064,0.072224,0.2610347851505408,-0.21718795673779598,0.12072493422975739
1742920351.0623782,-1.093852,0.058133,-0.217404,0.065636,-0.040504,0.090768,0.2610347851505408,-0.21718795673779598,0.12072493422975739
1742920351.100916,-1.128622,0.050996,-0.221552,0.050263999999999996,-0.023424,0.082472,0.2610347851505408,-0.21718795673779598,0.12072493422975739
1742920351.1446295,-1.100623,0.075823,-0.188063,0.050996,0.000976,0.05978,0.2610347851505408,-0.21718795673779598,0.12072493422975739
1742920351.1780477,-1.100623,0.075823,-0.163419,0.053191999999999996,0.00976,0.033428,0.2610347851505408,-0.21718795673779598,0.12072493422975739
1742920351.2165759,-0.893162,0.046116,-0.180072,0.04636,-0.0017079999999999999,0.005612,0.23852674656533177,-0.22712657117801813,0.1287635194387606
1742920351.2581728,-0.793976,0.031232,-0.22167399999999998,0.032695999999999996,-0.01586,-0.022935999999999998,0.23852674656533177,-0.22712657117801813,0.1287635194387606
1742920351.2929454,-0.737734,0.042578,-0.25193,0.020984,-0.01464,-0.043432,0.23852674656533177,-0.22712657117801813,0.1287635194387606
1742920351.3314762,-0.763049,0.039284,-0.263276,0.011712,-0.002928,-0.040748,0.23852674656533177,-0.22712657117801813,0.1287635194387606
1742920351.3715982,-0.823866,0.044835,-0.267424,0.0017079999999999999,0.004392,-0.027084,0.23852674656533177,-0.22712657117801813,0.1287635194387606
1742920351.4085763,-0.916159,0.035136,-0.284016,-0.008052,0.000488,-0.028059999999999998,0.2578193510669395,-0.20841859105524702,0.13183279742765272
1742920351.4493608,-1.005463,0.023485,-0.31964,-0.019764,-0.001464,-0.034648,0.2578193510669395,-0.20841859105524702,0.13183279742765272
1742920351.4875853,-1.0775649999999999,0.06283,-0.329644,-0.031964,0.020252,-0.044652,0.2578193510669395,-0.20841859105524702,0.13183279742765272
1742920351.5263627,-1.065426,0.090036,-0.320067,-0.043676,0.056852,-0.041724,0.2578193510669395,-0.20841859105524702,0.13183279742765272
1742920351.5627916,-1.0349869999999999,0.036844,-0.315309,-0.056852,0.070516,-0.005612,0.2578193510669395,-0.20841859105524702,0.13183279742765272
1742920351.6015923,-1.151924,-0.031781,-0.285236,-0.067344,0.056119999999999996,0.00244,0.24641917567962585,-0.21660333235895937,0.12145571470330313
1742920351.6406298,-1.3334599999999999,-0.00732,-0.223443,-0.076128,0.038308,-0.031476,0.24641917567962585,-0.21660333235895937,0.12145571470330313
1742920351.679156,-1.280634,0.047824,-0.189283,-0.068564,0.021228,-0.052948,0.24641917567962585,-0.21660333235895937,0.12145571470330313
1742920351.7177393,-1.15961,-0.0051849999999999995,-0.197457,-0.055876,-0.01098,-0.045384,0.24641917567962585,-0.21660333235895937,0.12145571470330313
1742920351.756331,-1.104222,-0.046482,-0.204838,-0.058316,-0.023424,-0.05856,0.24641917567962585,-0.21660333235895937,0.12145571470330313
1742920351.794894,-0.945866,-0.025071,-0.191418,-0.072956,-0.008052,-0.052948,0.24641917567962585,-0.21660333235895937,0.12145571470330313
1742920351.8334796,-0.788059,0.001037,-0.176046,-0.087352,0.006344,-0.012444,0.25869628763519437,-0.2095878398129202,0.12452499269219526
1742920351.8712103,-0.6700849999999999,0.022082,-0.17202,-0.091988,0.010492,0.010248,0.25869628763519437,-0.2095878398129202,0.12452499269219526
1742920351.9097402,-0.6405609999999999,0.042456,-0.175558,-0.088572,-0.002928,0.007808,0.25869628763519437,-0.2095878398129202,0.12452499269219526
1742920351.9489515,-0.670451,0.048494999999999996,-0.196664,-0.081496,-0.025863999999999998,-0.00488,0.25869628763519437,-0.2095878398129202,0.12452499269219526
1742920351.9875743,-0.7431019999999999,0.068564,-0.238998,-0.07198,-0.049044,-0.012931999999999999,0.25869628763519437,-0.2095878398129202,0.12452499269219526
1742920352.026613,-0.904447,0.08479,-0.29524,-0.059536,-0.06831999999999999,-0.016592,0.2616194095293774,-0.21806489330605086,0.08900906167787197
1742920352.0646765,-1.056642,0.102297,-0.341051,-0.04514,-0.058072,-0.011467999999999999,0.2616194095293774,-0.21806489330605086,0.08900906167787197
1742920352.1032295,-1.159549,0.096258,-0.337696,-0.021471999999999998,-0.020007999999999998,0.004148,0.2616194095293774,-0.21806489330605086,0.08900906167787197
1742920352.1417663,-1.2232939999999999,0.106628,-0.314028,0.000488,0.017079999999999998,0.020984,0.2616194095293774,-0.21806489330605086,0.08900906167787197
1742920352.1803093,-1.20963,0.174704,-0.28438199999999997,0.024399999999999998,0.029036,0.0305,0.2616194095293774,-0.21806489330605086,0.08900906167787197
1742920352.2189257,-1.2993,0.17025099999999999,-0.23741199999999998,0.059047999999999996,0.022448,0.035136,0.25665010230926627,-0.2332651271558024,0.09792458345513008
1742920352.257744,-1.224026,0.09790499999999999,-0.203313,0.07710399999999999,0.028059999999999998,0.031476,0.25665010230926627,-0.2332651271558024,0.09792458345513008
1742920352.29605,-1.0848849999999999,0.089243,-0.184769,0.071736,0.023424,0.01342,0.25665010230926627,-0.2332651271558024,0.09792458345513008
1742920352.3345804,-1.080554,0.094245,-0.15921,0.066368,0.015616,0.000244,0.25665010230926627,-0.2332651271558024,0.09792458345513008
1742920352.372433,-0.981551,0.093513,-0.14335,0.066856,0.019032,0.016347999999999998,0.25665010230926627,-0.2332651271558024,0.09792458345513008
1742920352.4110336,-0.8565619999999999,0.041541,-0.15189,0.066856,0.016592,0.024888,0.25665010230926627,-0.2332651271558024,0.09792458345513008
1742920352.4497137,-0.744444,0.019703,-0.18361,0.060756,0.0068319999999999995,-0.002928,0.24758842443729903,-0.21981876644256065,0.11590178310435545
1742920352.4899426,-0.698999,0.030683,-0.203984,0.050996,-0.00488,-0.020984,0.24758842443729903,-0.21981876644256065,0.11590178310435545
1742920352.5287328,-0.751398,0.049958999999999996,-0.22569999999999998,0.0427,-0.013176,-0.02562,0.24758842443729903,-0.21981876644256065,0.11590178310435545
1742920352.5722067,-0.833626,0.038857,-0.262788,0.033184,-0.012688,-0.021228,0.24758842443729903,-0.21981876644256065,0.11590178310435545
1742920352.6036937,-0.904691,0.037027,-0.30597599999999997,0.0183,-0.011956,-0.016592,0.24758842443729903,-0.21981876644256065,0.11590178310435545
1742920352.6422274,-0.974414,0.050081,-0.343979,0.0017079999999999999,-0.010735999999999999,-0.01586,0.2537269804150833,-0.20169541069862612,0.11385559777842737
1742920352.6888778,-1.104405,0.07747,-0.324825,-0.013908,0.002196,-0.013176,0.2537269804150833,-0.20169541069862612,0.11385559777842737
1742920352.7201295,-1.16022,0.06478199999999999,-0.301828,-0.017811999999999998,0.040015999999999996,-0.013663999999999999,0.2537269804150833,-0.20169541069862612,0.11385559777842737
1742920352.75867,-1.040538,0.018788,-0.28548,-0.023424,0.06588,-0.005612,0.2537269804150833,-0.20169541069862612,0.11385559777842737
1742920352.8046522,-1.083604,-0.019764,-0.24790399999999999,-0.036356,0.054168,-0.005124,0.2537269804150833,-0.20169541069862612,0.11385559777842737
1742920352.8358178,-1.115141,-0.00915,-0.199592,-0.055144,0.033672,-0.000488,0.24232680502776965,-0.20228003507746273,0.12525577316574102
1742920352.8736117,-1.134356,0.014457,-0.169885,-0.06709999999999999,0.00122,0.00488,0.24232680502776965,-0.20228003507746273,0.12525577316574102
1742920352.9186902,-1.121546,0.005307,-0.181231,-0.06709999999999999,-0.03782,0.0068319999999999995,0.24232680502776965,-0.20228003507746273,0.12525577316574102
1742920352.9506977,-1.074454,-0.027023,-0.20843699999999998,-0.064416,-0.059047999999999996,0.00122,0.24232680502776965,-0.20228003507746273,0.12525577316574102
1742920352.9899879,-1.0285819999999999,-0.048983,-0.21429299999999998,-0.063928,-0.0549,-0.00122,0.24232680502776965,-0.20228003507746273,0.12525577316574102
1742920353.0358994,-0.940986,-0.050263999999999996,-0.225883,-0.06831999999999999,-0.033916,0.0075639999999999995,0.24232680502776965,-0.20228003507746273,0.08988599824612686
1742920353.0670896,-0.784887,-0.025681,-0.241865,-0.067832,-0.018056,0.012688,0.2528500438468284,-0.22654194679918152,0.08988599824612686
1742920353.105637,-0.70455,0.021716,-0.260714,-0.056852,-0.02196,0.013908,0.2528500438468284,-0.22654194679918152,0.08988599824612686
1742920353.1515403,-0.744505,0.029158,-0.288164,-0.037576,-0.034159999999999996,0.022448,0.2528500438468284,-0.22654194679918152,0.08988599824612686
1742920353.1827338,-0.848205,0.033001,-0.313784,-0.01952,-0.035623999999999996,0.02318,0.2528500438468284,-0.22654194679918152,0.08988599824612686
1742920353.2213376,-0.904264,0.064294,-0.325801,-0.003904,-0.023424,0.010735999999999999,0.2528500438468284,-0.22654194679918152,0.08988599824612686
1742920353.267235,-0.983015,0.083631,-0.322934,0.029523999999999998,0.01464,0.010248,0.2519731072785735,-0.22888044431452792,0.08535515931014323
1742920353.298512,-1.058655,0.095038,-0.300364,0.029523999999999998,0.01464,0.010248,0.2519731072785735,-0.22888044431452792,0.08535515931014323
1742920353.3370657,-1.117642,0.079849,-0.26839999999999997,0.044896,0.030987999999999998,0.028791999999999998,0.2519731072785735,-0.22888044431452792,0.08535515931014323
1742920353.381401,-1.052189,0.093757,-0.263032,0.06588,0.004392,0.047335999999999996,0.2519731072785735,-0.22888044431452792,0.08535515931014323
1742920353.4134083,-1.087569,0.135786,-0.255041,0.06588,0.004392,0.047335999999999996,0.2519731072785735,-0.22888044431452792,0.08535515931014323
1742920353.4519515,-1.223416,0.123586,-0.223992,0.07686,-0.024644,0.062708,0.24086524408067816,-0.2356036246711488,0.10040923706518562
1742920353.503847,-1.1414929999999999,0.084424,-0.19763999999999998,0.063928,0.0034159999999999998,0.051727999999999996,0.24086524408067816,-0.2356036246711488,0.10040923706518562
1742920353.5302804,-1.1414929999999999,0.084424,-0.19763999999999998,0.063928,0.0034159999999999998,0.051727999999999996,0.24086524408067816,-0.2356036246711488,0.10040923706518562
1742920353.5687478,-1.049505,0.11376499999999999,-0.18178,0.063684,0.012444,0.036844,0.24086524408067816,-0.2356036246711488,0.10040923706518562
1742920353.6062267,-0.9888709999999999,0.094489,-0.155489,0.073932,0.026108,0.030255999999999998,0.24086524408067816,-0.2356036246711488,0.10040923706518562
1742920353.6447704,-0.870409,0.037027,-0.134688,0.078812,0.034159999999999996,0.02196,0.24086524408067816,-0.2356036246711488,0.10040923706518562
1742920353.6833136,-0.727913,0.003477,-0.137433,0.071004,0.024399999999999998,-0.0017079999999999999,0.23764980999707688,-0.22771119555685473,0.12744811458637825
1742920353.7218707,-0.660874,0.014945,-0.16067399999999998,0.053924,-0.000732,-0.024888,0.23764980999707688,-0.22771119555685473,0.12744811458637825
1742920353.760536,-0.6396459999999999,0.020313,-0.187758,0.035136,-0.04392,-0.03172,0.23764980999707688,-0.22771119555685473,0.12744811458637825
1742920353.800013,-0.728645,0.044835,-0.212951,0.0034159999999999998,-0.056608,-0.032695999999999996,0.23764980999707688,-0.22771119555685473,0.12744811458637825
1742920353.83835,-0.822707,0.044652,-0.302865,-0.010248,-0.055388,-0.039284,0.23764980999707688,-0.22771119555685473,0.12744811458637825
1742920353.876701,-0.956419,0.059109,-0.320494,-0.020496,-0.0305,-0.046116,0.24992692195264543,-0.21426483484361297,0.1148786904413914
1742920353.9147804,-1.18523,0.080154,-0.29761899999999997,-0.031232,0.00366,-0.050996,0.24992692195264543,-0.21426483484361297,0.1148786904413914
1742920353.9533384,-1.186633,0.081191,-0.285175,-0.037332,0.028059999999999998,-0.03538,0.24992692195264543,-0.21426483484361297,0.1148786904413914
1742920353.9926467,-1.0766499999999999,0.031903,-0.29578899999999997,-0.03904,0.028059999999999998,-0.022935999999999998,0.24992692195264543,-0.21426483484361297,0.1148786904413914
1742920354.0311801,-1.214876,0.004026,-0.281759,-0.0427,0.003172,-0.028059999999999998,0.24992692195264543,-0.21426483484361297,0.1148786904413914
1742920354.0697544,-1.339133,0.0015249999999999999,-0.234423,-0.048556,0.00122,-0.024399999999999998,0.2519731072785735,-0.2087109032446653,0.10859397836889799
1742920354.1082995,-1.3307149999999999,0.001586,-0.19428499999999999,-0.053191999999999996,0.021471999999999998,-0.025131999999999998,0.2519731072785735,-0.2087109032446653,0.10859397836889799
1742920354.146874,-1.150826,-0.008357,-0.17055599999999999,-0.056852,0.037087999999999996,-0.019764,0.2519731072785735,-0.2087109032446653,0.10859397836889799
1742920354.1854882,-1.0423069999999999,-0.033428,-0.16006399999999998,-0.063928,0.038796,-0.004148,0.2519731072785735,-0.2087109032446653,0.10859397836889799
1742920354.2239926,-0.9182939999999999,-0.028853,-0.152256,-0.070272,0.036112,0.003172,0.2519731072785735,-0.2087109032446653,0.10859397836889799
1742920354.2625625,-0.779824,0.006588,-0.168543,-0.069784,0.02562,0.008296,0.2519731072785735,-0.2087109032446653,0.10859397836889799
1742920354.3011065,-0.7071729999999999,0.020801,-0.197701,-0.059292,0.0068319999999999995,0.014884,0.2516807950891552,-0.21748026892721425,0.11064016369482607
1742920354.3397894,-0.727974,0.044591,-0.21520799999999998,-0.04514,-0.01098,0.010003999999999999,0.2516807950891552,-0.21748026892721425,0.11064016369482607
1742920354.3782623,-0.7829349999999999,0.046543,-0.244244,-0.03294,-0.017079999999999998,0.00244,0.2516807950891552,-0.21748026892721425,0.11064016369482607
1742920354.416075,-0.80703,0.057279,-0.271877,-0.02318,-0.015372,-0.000488,0.2516807950891552,-0.21748026892721425,0.11064016369482607
1742920354.4546208,-0.890722,0.072468,-0.291336,-0.013176,-0.016104,0.000488,0.2516807950891552,-0.21748026892721425,0.11064016369482607
1742920354.4935632,-0.983503,0.068381,-0.309209,-0.004148,-0.011956,0.010492,0.259280912014031,-0.22449576147325342,0.1053785442852967
1742920354.534555,-1.047736,0.073139,-0.301889,0.004148,0.000244,0.031476,0.259280912014031,-0.22449576147325342,0.1053785442852967
1742920354.5722344,-1.108614,0.077775,-0.29212899999999997,0.013908,0.013908,0.054168,0.259280912014031,-0.22449576147325342,0.1053785442852967
1742920354.6100073,-1.0349869999999999,0.11809599999999999,-0.296521,0.024888,0.020007999999999998,0.058316,0.259280912014031,-0.22449576147325342,0.1053785442852967
1742920354.6474512,-1.0833599999999999,0.178791,-0.28194199999999997,0.04392,0.000244,0.061975999999999996,0.259280912014031,-0.22449576147325342,0.1053785442852967
1742920354.6927464,-1.195966,0.18117,-0.25681,0.068564,-0.020007999999999998,0.072224,0.24671148786904415,-0.2344343759134756,0.11093247588424437
1742920354.725282,-1.212375,0.144753,-0.232288,0.088084,-0.019764,0.074664,0.24671148786904415,-0.2344343759134756,0.11093247588424437
1742920354.7638304,-1.105625,0.124074,-0.233264,0.094428,-0.005612,0.061488,0.24671148786904415,-0.2344343759134756,0.11093247588424437
1742920354.8101218,-1.049139,0.102663,-0.219905,0.097844,0.011712,0.0549,0.24671148786904415,-0.2344343759134756,0.11093247588424437
1742920354.8409846,-0.974719,0.08527799999999999,-0.188063,0.101992,0.03294,0.054168,0.24671148786904415,-0.2344343759134756,0.11093247588424437
1742920354.8795102,-0.8641869999999999,0.055876,-0.16104,0.102968,0.037332,0.045871999999999996,0.24671148786904415,-0.2344343759134756,0.11093247588424437
1742920354.9173155,-0.742309,0.025131999999999998,-0.16530999999999998,0.093452,0.0183,0.033916,0.2344343759134756,-0.24174218064893305,0.13300204618532593
1742920354.9558797,-0.72651,0.018117,-0.199714,0.077836,-0.013663999999999999,0.013663999999999999,0.2344343759134756,-0.24174218064893305,0.13300204618532593
1742920354.9947088,-0.709796,0.021167,-0.238266,0.061732,-0.037332,-0.008784,0.2344343759134756,-0.24174218064893305,0.13300204618532593
1742920355.0410626,-0.764879,0.040382,-0.274317,0.04392,-0.051727999999999996,-0.021471999999999998,0.2344343759134756,-0.24174218064893305,0.13300204618532593
1742920355.072243,-0.83143,0.057157,-0.312503,0.027572,-0.056852,-0.026108,0.2344343759134756,-0.24174218064893305,0.13300204618532593
1742920355.1107993,-0.938241,0.049471,-0.349774,0.011467999999999999,-0.054168,-0.032452,0.24583455130078924,-0.22478807366267173,0.12978661210172465
1742920355.1567104,-1.048224,0.03477,-0.373259,-0.005856,-0.03538,-0.04392,0.24583455130078924,-0.22478807366267173,0.12978661210172465
1742920355.1880422,-1.167723,0.07387099999999999,-0.357155,-0.023912,-0.000732,-0.046604,0.24583455130078924,-0.22478807366267173,0.12978661210172465
1742920355.2265723,-1.1834609999999999,0.075518,-0.322141,-0.024888,0.05002,-0.044164,0.24583455130078924,-0.22478807366267173,0.12978661210172465
1742920355.272531,-1.1855959999999999,0.031232,-0.26004299999999997,-0.022692,0.068076,-0.050752,0.24583455130078924,-0.22478807366267173,0.12978661210172465
1742920355.303698,-1.296311,0.023363,-0.194651,-0.033184,0.050508,-0.070516,0.24729611224788073,-0.21280327389652148,0.1359251680795089
1742920355.3423028,-1.21085,0.032025,-0.18788,-0.043676,0.041479999999999996,-0.056364,0.24729611224788073,-0.21280327389652148,0.1359251680795089
1742920355.3882165,-1.127219,-0.028182,-0.195993,-0.050263999999999996,0.024644,-0.026108,0.24729611224788073,-0.21280327389652148,0.1359251680795089
1742920355.4186583,-1.075308,-0.037027,-0.175619,-0.069052,0.018543999999999998,-0.025131999999999998,0.24729611224788073,-0.21280327389652148,0.1359251680795089
1742920355.4582644,-0.946171,-0.030255999999999998,-0.161101,-0.096624,0.019275999999999998,-0.01586,0.24729611224788073,-0.21280327389652148,0.1359251680795089
1742920355.4973176,-0.840275,0.012565999999999999,-0.170373,-0.11931599999999999,0.010248,0.012688,0.24729611224788073,-0.21280327389652148,0.1359251680795089
1742920355.5364203,-0.7385269999999999,0.052886999999999997,-0.187087,-0.123708,-0.00366,0.033916,0.24378836597486114,-0.21631102016954107,0.1270096463022508
1742920355.573627,-0.715774,0.056364,-0.20721699999999998,-0.113216,-0.017811999999999998,0.038308,0.24378836597486114,-0.21631102016954107,0.1270096463022508
1742920355.6179748,-0.7531059999999999,0.06222,-0.24034,-0.096624,-0.0305,0.030255999999999998,0.24378836597486114,-0.21631102016954107,0.1270096463022508
1742920355.6499906,-0.783728,0.074298,-0.268949,-0.077592,-0.036356,0.016104,0.24378836597486114,-0.21631102016954107,0.1270096463022508
1742920355.6885235,-0.854061,0.114558,-0.296033,-0.05856,-0.039772,0.005124,0.24378836597486114,-0.21631102016954107,0.1270096463022508
1742920355.73492,-0.9520879999999999,0.147559,-0.327387,-0.035868,-0.036844,0.011224,0.2540192926045016,-0.24028061970184156,0.09894767611809413
1742920355.76642,-1.029558,0.154574,-0.334402,-0.008052,-0.022692,0.02318,0.2540192926045016,-0.24028061970184156,0.09894767611809413
1742920355.8049397,-1.109773,0.151402,-0.317139,0.02196,0.000488,0.021228,0.2540192926045016,-0.24028061970184156,0.09894767611809413
1742920355.8562672,-1.063901,0.150426,-0.30445099999999997,0.065148,0.002196,0.0034159999999999998,0.2540192926045016,-0.24028061970184156,0.09894767611809413
1742920355.8829596,-1.066402,0.185806,-0.28285699999999997,0.065148,0.002196,0.0034159999999999998,0.2540192926045016,-0.24028061970184156,0.09894767611809413
1742920355.917384,-1.129537,0.181414,-0.26870499999999997,0.072956,-0.029036,0.01464,0.2531423560362467,-0.24232680502776965,0.105670856474715
1742920355.9591217,-1.207739,0.138592,-0.264069,0.066124,-0.038308,0.035868,0.2531423560362467,-0.24232680502776965,0.105670856474715
1742920355.994589,-1.144421,0.121268,-0.250832,0.054655999999999996,-0.021228,0.02928,0.2531423560362467,-0.24232680502776965,0.105670856474715
1742920356.0337791,-0.996008,0.105957,-0.229482,0.045628,0.005856,0.009028,0.2531423560362467,-0.24232680502776965,0.105670856474715
1742920356.071498,-0.9104249999999999,0.099735,-0.18842899999999999,0.041479999999999996,0.024644,-0.020496,0.2531423560362467,-0.24232680502776965,0.105670856474715
1742920356.110008,-0.8235,0.101382,-0.14743699999999998,0.041479999999999996,0.027084,-0.032452,0.2531423560362467,-0.24232680502776965,0.105670856474715
1742920356.148538,-0.745725,0.053375,-0.157624,0.035623999999999996,0.008539999999999999,-0.009271999999999999,0.24466530254311605,-0.2303420052616194,0.12233265127155803
1742920356.1870577,-0.777079,0.0030499999999999998,-0.198494,0.022448,-0.014152,-0.017811999999999998,0.24466530254311605,-0.2303420052616194,0.12233265127155803
1742920356.225723,-0.822585,0.008967,-0.218563,0.004148,-0.022935999999999998,-0.049532,0.24466530254311605,-0.2303420052616194,0.12233265127155803
1742920356.2641401,-0.892186,0.024949,-0.233325,-0.01586,-0.030987999999999998,-0.06709999999999999,0.24466530254311605,-0.2303420052616194,0.12233265127155803
1742920356.3026488,-0.944524,0.020313,-0.263947,-0.03782,-0.041479999999999996,-0.073932,0.24466530254311605,-0.2303420052616194,0.12233265127155803
1742920356.3412068,-0.954162,0.010919,-0.290665,-0.062952,-0.0427,-0.077348,0.26337328266588717,-0.20608009353990062,0.09894767611809413
1742920356.3797705,-1.045479,0.036173,-0.300059,-0.090768,-0.036356,-0.070272,0.26337328266588717,-0.20608009353990062,0.09894767611809413
1742920356.4182756,-1.153937,0.082289,-0.310734,-0.111508,-0.0060999999999999995,-0.048799999999999996,0.26337328266588717,-0.20608009353990062,0.09894767611809413
1742920356.4580426,-1.1454579999999999,0.03294,-0.303963,-0.11834,0.042212,-0.018788,0.26337328266588717,-0.20608009353990062,0.09894767611809413
1742920356.49591,-1.289784,0.048617,-0.2135,-0.12688,0.043432,-0.013908,0.26337328266588717,-0.20608009353990062,0.09894767611809413
1742920356.534502,-1.481263,0.072773,-0.141398,-0.128588,0.022203999999999998,0.00244,0.26541946799181526,-0.21806489330605086,0.08681672025723473
1742920356.57241,-1.347368,0.026108,-0.193065,-0.12102399999999999,0.0046359999999999995,-0.007076,0.26541946799181526,-0.21806489330605086,0.08681672025723473
1742920356.6109369,-0.94855,-0.036905,-0.211182,-0.117852,0.003172,-0.008784,0.26541946799181526,-0.21806489330605086,0.08681672025723473
1742920356.6494675,-0.82533,-0.039894,-0.22417499999999999,-0.110288,0.011956,0.017079999999999998,0.26541946799181526,-0.21806489330605086,0.08681672025723473
1742920356.6879988,-0.72529,-0.02989,-0.23003099999999999,-0.09589199999999999,0.022448,0.03904,0.26541946799181526,-0.21806489330605086,0.08681672025723473
1742920356.7265382,-0.688446,-0.002196,-0.222223,-0.07808,0.02196,0.033672,0.26541946799181526,-0.21806489330605086,0.08681672025723473
1742920356.765058,-0.7090029999999999,0.023607,-0.230763,-0.060024,0.012931999999999999,0.025376,0.26571178018123354,-0.24349605378544284,0.07687810581701257
1742920356.8065994,-0.781471,0.031232,-0.259006,-0.041236,0.004148,0.017079999999999998,0.26571178018123354,-0.24349605378544284,0.07687810581701257
1742920356.8421218,-0.847961,0.054412,-0.281881,-0.022448,0.0,-0.003172,0.26571178018123354,-0.24349605378544284,0.07687810581701257
1742920356.8806489,-0.936045,0.08851099999999999,-0.295118,-0.005856,-0.010735999999999999,-0.005612,0.26571178018123354,-0.24349605378544284,0.07687810581701257
1742920356.919184,-0.97417,0.074908,-0.317871,0.008052,-0.017079999999999998,0.010248,0.26571178018123354,-0.24349605378544284,0.07687810581701257
1742920356.9594128,-1.019493,0.071797,-0.320799,0.017324,-0.0075639999999999995,0.027816,0.2589885998246127,-0.24232680502776965,0.07527038877521193
1742920356.996261,-1.054812,0.062891,-0.304268,0.022448,0.013176,0.042456,0.2589885998246127,-0.24232680502776965,0.07527038877521193
1742920357.0347679,-1.0675,0.07649399999999999,-0.287798,0.023912,0.029523999999999998,0.040015999999999996,0.2589885998246127,-0.24232680502776965,0.07527038877521193
1742920357.073701,-1.096414,0.140178,-0.26291,0.029036,0.016104,0.029523999999999998,0.2589885998246127,-0.24232680502776965,0.07527038877521193
1742920357.111818,-1.249951,0.17299599999999998,-0.223138,0.035868,-0.030012,0.033428,0.2589885998246127,-0.24232680502776965,0.07527038877521193
1742920357.150333,-1.261968,0.132187,-0.237595,0.033184,-0.042943999999999996,0.045871999999999996,0.2537269804150833,-0.2502192341420637,0.07380882782812043
1742920357.1888592,-1.153998,0.15006,-0.270596,0.023424,-0.018056,0.032695999999999996,0.2537269804150833,-0.2502192341420637,0.07380882782812043
1742920357.2273889,-1.0897649999999999,0.208254,-0.240767,0.027327999999999998,0.016592,0.021228,0.2537269804150833,-0.2502192341420637,0.07380882782812043
1742920357.2659054,-0.9919209999999999,0.187453,-0.194407,0.04514,0.049288,0.022692,0.2537269804150833,-0.2502192341420637,0.07380882782812043
1742920357.3044262,-0.878034,0.103883,-0.169824,0.05978,0.055144,0.008784,0.2537269804150833,-0.2502192341420637,0.07380882782812043
1742920357.3429482,-0.712846,0.055083,-0.174155,0.059536,0.040992,-0.017568,0.2537269804150833,-0.2502192341420637,0.07380882782812043
1742920357.3814907,-0.656787,0.043005,-0.190442,0.052704,0.013176,-0.031964,0.2379421221864952,-0.2519731072785735,0.09047062262496346
1742920357.420023,-0.690398,0.029463,-0.217526,0.04392,-0.01952,-0.040015999999999996,0.2379421221864952,-0.2519731072785735,0.09047062262496346
1742920357.458591,-0.786107,0.023546,-0.249795,0.030012,-0.041479999999999996,-0.03904,0.2379421221864952,-0.2519731072785735,0.09047062262496346
1742920357.5015101,-0.91622,0.017324,-0.28609,0.012199999999999999,-0.042212,-0.036112,0.2379421221864952,-0.2519731072785735,0.09047062262496346
1742920357.5360627,-0.980941,0.003904,-0.318481,-0.008784,-0.015127999999999999,-0.040992,0.2379421221864952,-0.2519731072785735,0.09047062262496346
1742920357.574157,-1.068049,0.009637999999999999,-0.323605,-0.029768,0.013176,-0.061244,0.2616194095293774,-0.23969599532300498,0.09836305173925752
1742920357.6126795,-1.132831,0.0427,-0.314394,-0.043432,0.037576,-0.069784,0.2616194095293774,-0.23969599532300498,0.09836305173925752
1742920357.6541522,-1.042063,0.030560999999999998,-0.317017,-0.045871999999999996,0.053191999999999996,-0.045871999999999996,0.2616194095293774,-0.23969599532300498,0.09836305173925752
1742920357.6897357,-1.086166,0.021167,-0.283223,-0.051727999999999996,0.027572,-0.027816,0.2616194095293774,-0.23969599532300498,0.09836305173925752
1742920357.7287,-1.211826,0.07381,-0.226676,-0.05978,-0.010003999999999999,-0.011712,0.2616194095293774,-0.23969599532300498,0.09836305173925752
1742920357.7667952,-1.304058,0.10113799999999999,-0.204716,-0.055632,-0.038551999999999996,0.018543999999999998,0.2610347851505408,-0.23735749780765858,0.08433206664717918
1742920357.8082712,-1.077077,0.053009,-0.244732,-0.047092,-0.042456,0.02684,0.2610347851505408,-0.23735749780765858,0.08433206664717918
1742920357.8438485,-0.9949709999999999,0.004392,-0.260897,-0.040015999999999996,-0.037332,0.00732,0.2610347851505408,-0.23735749780765858,0.08433206664717918
1742920357.882368,-0.918538,-0.010919,-0.235826,-0.038308,-0.014395999999999999,-0.00244,0.2610347851505408,-0.23735749780765858,0.08433206664717918
1742920357.9209113,-0.856318,-0.009577,-0.23247099999999998,-0.039528,0.0068319999999999995,0.012444,0.2610347851505408,-0.23735749780765858,0.08433206664717918
1742920357.9595234,-0.765245,-0.0008539999999999999,-0.2501,-0.032208,0.017079999999999998,0.028791999999999998,0.2610347851505408,-0.23735749780765858,0.08433206664717918
1742920357.9979877,-0.750605,0.011285,-0.266265,-0.016347999999999998,0.022203999999999998,0.032695999999999996,0.2557731657410114,-0.24963460976322713,0.08374744226834259
1742920358.0365107,-0.773175,0.023485,-0.270108,0.0026839999999999998,0.020496,0.027327999999999998,0.2557731657410114,-0.24963460976322713,0.08374744226834259
1742920358.0750337,-0.803858,0.045811,-0.285053,0.020496,0.016104,0.02562,0.2557731657410114,-0.24963460976322713,0.08374744226834259
1742920358.1135712,-0.8629669999999999,0.055876,-0.319274,0.038064,0.008539999999999999,0.026108,0.2557731657410114,-0.24963460976322713,0.08374744226834259
1742920358.152091,-0.918416,0.041053,-0.351848,0.052948,0.000244,0.016836,0.2557731657410114,-0.24963460976322713,0.08374744226834259
1742920358.190617,-0.969534,0.048617,-0.358741,0.05734,-0.010492,0.005856,0.2508038585209003,-0.24349605378544284,0.08593978368897984
1742920358.2320929,-1.072258,0.066673,-0.357277,0.054412,-0.017568,0.0068319999999999995,0.2508038585209003,-0.24349605378544284,0.08593978368897984
1742920358.2676816,-1.109651,0.084607,-0.358131,0.048799999999999996,-0.00732,0.019032,0.2508038585209003,-0.24349605378544284,0.08593978368897984
1742920358.3062057,-1.096536,0.129076,-0.362584,0.04758,0.0068319999999999995,0.04026,0.2508038585209003,-0.24349605378544284,0.08593978368897984
1742920358.3447444,-1.103978,0.191418,-0.351421,0.056608,0.001952,0.060268,0.2508038585209003,-0.24349605378544284,0.08593978368897984
1742920358.383311,-1.235006,0.184037,-0.298473,0.07417599999999999,-0.009028,0.076128,0.2347266881028939,-0.24934229757380882,0.1059631686641333
1742920358.4218354,-1.14985,0.120292,-0.276025,0.084424,0.022448,0.06588,0.2347266881028939,-0.24934229757380882,0.1059631686641333
1742920358.461071,-0.98698,0.132675,-0.236314,0.087352,0.040504,0.036844,0.2347266881028939,-0.24934229757380882,0.1059631686641333
1742920358.4989085,-0.9745969999999999,0.143472,-0.192577,0.09272,0.0366,0.0427,0.2347266881028939,-0.24934229757380882,0.1059631686641333
1742920358.5374382,-0.9027999999999999,0.08784,-0.166042,0.09881999999999999,0.035868,0.05856,0.2347266881028939,-0.24934229757380882,0.1059631686641333
1742920358.5759575,-0.815631,0.031293,-0.150975,0.096624,0.01952,0.049044,0.2347266881028939,-0.24934229757380882,0.1059631686641333
1742920358.6144862,-0.7305969999999999,-0.004697,-0.163358,0.081252,-0.016592,0.023667999999999998,0.22040339082139726,-0.24495761473253436,0.13270973399590763
1742920358.6542046,-0.7175429999999999,0.003355,-0.19886,0.058316,-0.05978,-0.00488,0.22040339082139726,-0.24495761473253436,0.13270973399590763
1742920358.6915514,-0.763842,0.010614,-0.248026,0.040015999999999996,-0.096136,-0.011712,0.22040339082139726,-0.24495761473253436,0.13270973399590763
1742920358.730077,-0.8538169999999999,0.01525,-0.31049,0.026108,-0.11712,-0.014395999999999999,0.22040339082139726,-0.24495761473253436,0.13270973399590763
1742920358.7686033,-0.9678869999999999,0.048068,-0.38003,0.016347999999999998,-0.105896,-0.02928,0.22040339082139726,-0.24495761473253436,0.13270973399590763
1742920358.8071373,-1.04005,0.058072,-0.418155,0.011467999999999999,-0.064904,-0.043432,0.23911137094416837,-0.22303420052616194,0.10800935399006138
1742920358.8456595,-1.102087,0.08973099999999999,-0.392779,0.011224,-0.00244,-0.048068,0.23911137094416837,-0.22303420052616194,0.10800935399006138
1742920358.8841982,-1.116117,0.082228,-0.335622,0.01342,0.053436,-0.02928,0.23911137094416837,-0.22303420052616194,0.10800935399006138
1742920358.9227366,-1.053287,0.017202,-0.297863,0.00976,0.072956,-0.017324,0.23911137094416837,-0.22303420052616194,0.10800935399006138
1742920358.961293,-1.117764,-0.012322,-0.26047,-0.007808,0.044896,-0.032695999999999996,0.23911137094416837,-0.22303420052616194,0.10800935399006138
1742920358.9998174,-1.337852,0.066307,-0.22600499999999998,-0.030012,0.0068319999999999995,-0.029523999999999998,0.24320374159602456,-0.23092662964045602,0.1166325635779012
1742920359.0383322,-1.324981,0.057096,-0.221796,-0.038308,-0.000244,0.02562,0.24320374159602456,-0.23092662964045602,0.1166325635779012
1742920359.0787528,-1.1935259999999999,0.026474,-0.227164,-0.042212,0.015372,0.049532,0.24320374159602456,-0.23092662964045602,0.1166325635779012
1742920359.1154041,-1.056947,0.008052,-0.193187,-0.04758,0.031964,0.027816,0.24320374159602456,-0.23092662964045602,0.1166325635779012
1742920359.153925,-0.9140849999999999,0.008905999999999999,-0.161833,-0.061244,0.038064,0.013663999999999999,0.24320374159602456,-0.23092662964045602,0.1166325635779012
1742920359.192454,-0.81984,0.045933,-0.166408,-0.075884,0.029523999999999998,0.020739999999999998,0.24320374159602456,-0.23092662964045602,0.1166325635779012
1742920359.2309794,-0.754387,0.05429,-0.193492,-0.078812,0.012444,0.024156,0.233849751534639,-0.24408067816427945,0.11151710026308097
1742920359.2695413,-0.697413,0.080093,-0.21923399999999998,-0.07417599999999999,0.003172,0.018788,0.233849751534639,-0.24408067816427945,0.11151710026308097
1742920359.3080583,-0.695827,0.066124,-0.252357,-0.061,-0.01098,0.011467999999999999,0.233849751534639,-0.24408067816427945,0.11151710026308097
1742920359.3465815,-0.767563,0.05185,-0.287188,-0.047335999999999996,-0.038796,-0.02684,0.233849751534639,-0.24408067816427945,0.11151710026308097
1742920359.3851237,-0.881267,0.105347,-0.306037,-0.02684,-0.051727999999999996,-0.022692,0.233849751534639,-0.24408067816427945,0.11151710026308097
1742920359.423661,-1.107394,0.12505,-0.387411,-0.0068319999999999995,-0.04758,0.009516,0.2341420637240573,-0.2508038585209003,0.08783981292019877
1742920359.463108,-1.1810209999999999,0.096075,-0.384422,0.016836,0.0060999999999999995,0.020496,0.2341420637240573,-0.2508038585209003,0.08783981292019877
1742920359.5007467,-1.0882399999999999,0.135237,-0.337025,0.042212,0.045871999999999996,0.014395999999999999,0.2341420637240573,-0.2508038585209003,0.08783981292019877
1742920359.5392795,-1.148447,0.185928,-0.272243,0.074664,0.025131999999999998,0.01342,0.2341420637240573,-0.2508038585209003,0.08783981292019877
1742920359.577789,-1.289845,0.156404,-0.199958,0.1037,-0.018056,0.025863999999999998,0.2341420637240573,-0.2508038585209003,0.08783981292019877
1742920359.6163175,-1.243729,0.134627,-0.212219,0.105164,-0.031232,0.038064,0.23501900029231218,-0.2516807950891552,0.10230926629640456
1742920359.65779,-1.146983,0.149328,-0.237961,0.10126,-0.024156,0.023424,0.23501900029231218,-0.2516807950891552,0.10230926629640456
1742920359.6933742,-1.066707,0.174033,-0.223626,0.105408,0.009271999999999999,0.000976,0.23501900029231218,-0.2516807950891552,0.10230926629640456
1742920359.7318983,-0.923235,0.146278,-0.185379,0.115656,0.04636,0.000244,0.23501900029231218,-0.2516807950891552,0.10230926629640456
1742920359.7704275,-0.829112,0.08527799999999999,-0.156587,0.122,0.052948,-0.00244,0.23501900029231218,-0.2516807950891552,0.10230926629640456
1742920359.8089597,-0.7050379999999999,0.061793,-0.165981,0.117364,0.031964,-0.017324,0.233849751534639,-0.22771119555685473,0.1356328558900906
1742920359.8474784,-0.643855,0.055022,-0.198067,0.10345599999999999,0.000488,-0.027572,0.233849751534639,-0.22771119555685473,0.1356328558900906
1742920359.8860068,-0.668438,0.058987,-0.23680199999999998,0.084912,-0.024644,-0.030987999999999998,0.233849751534639,-0.22771119555685473,0.1356328558900906
1742920359.924546,-0.75823,0.081435,-0.273097,0.065148,-0.038308,-0.021471999999999998,0.233849751534639,-0.22771119555685473,0.1356328558900906
1742920359.9631112,-0.85522,0.049227,-0.312747,0.046116,-0.039284,-0.00366,0.233849751534639,-0.22771119555685473,0.1356328558900906
1742920360.0016215,-0.8799859999999999,-0.040015999999999996,-0.356545,0.020252,-0.02928,-0.007076,0.233849751534639,-0.22771119555685473,0.1356328558900906
1742920360.0401397,-0.954955,-0.060756,-0.389424,-0.018543999999999998,-0.019764,-0.017568,0.24408067816427945,-0.2095878398129202,0.1417714118678749
1742920360.0816524,-1.1363079999999999,-0.001647,-0.358253,-0.05734,0.004392,-0.000732,0.24408067816427945,-0.2095878398129202,0.1417714118678749
1742920360.1172147,-1.171505,0.00549,-0.322202,-0.084912,0.055388,0.028304,0.24408067816427945,-0.2095878398129202,0.1417714118678749
1742920360.1557305,-1.168394,-0.013725,-0.283223,-0.106628,0.065636,0.038308,0.24408067816427945,-0.2095878398129202,0.1417714118678749
1742920360.194252,-1.3374249999999999,0.033672,-0.23338599999999998,-0.115412,0.027572,0.024156,0.24408067816427945,-0.2095878398129202,0.1417714118678749
1742920360.2327893,-1.324554,0.033854999999999996,-0.235277,-0.106872,-0.01342,0.005856,0.228003507746273,-0.22683425898859982,0.12379421221864952
1742920360.27133,-1.197857,0.044957,-0.263215,-0.087108,-0.037087999999999996,-0.025131999999999998,0.228003507746273,-0.22683425898859982,0.12379421221864952
1742920360.3098433,-1.1311229999999999,0.113033,-0.251076,-0.065148,-0.028548,-0.037087999999999996,0.228003507746273,-0.22683425898859982,0.12379421221864952
1742920360.3488233,-1.019859,0.121878,-0.22045399999999998,-0.048312,0.0060999999999999995,-0.002196,0.228003507746273,-0.22683425898859982,0.12379421221864952
1742920360.3869412,-0.841434,0.127795,-0.189832,-0.036844,0.03294,0.019032,0.228003507746273,-0.22683425898859982,0.12379421221864952
1742920360.4254622,-0.673135,0.134444,-0.182634,-0.027572,0.029523999999999998,0.025131999999999998,0.22888044431452792,-0.23735749780765858,0.11736334405144695
1742920360.464972,-0.61793,0.138104,-0.203557,-0.015616,0.0060999999999999995,0.028304,0.22888044431452792,-0.23735749780765858,0.11736334405144695
1742920360.5040762,-0.652334,0.132492,-0.239669,0.000488,-0.019764,0.031232,0.22888044431452792,-0.23735749780765858,0.11736334405144695
1742920360.5410845,-0.71675,0.131699,-0.278465,0.020252,-0.037087999999999996,0.027816,0.22888044431452792,-0.23735749780765858,0.11736334405144695
1742920360.5795975,-0.8331379999999999,0.120597,-0.308355,0.042456,-0.04758,0.030255999999999998,0.22888044431452792,-0.23735749780765858,0.11736334405144695
1742920360.618131,-0.885659,0.107543,-0.342759,0.057583999999999996,-0.051972,0.03538,0.22888044431452792,-0.23735749780765858,0.11736334405144695
1742920360.6566687,-0.885964,0.116754,-0.358863,0.068076,-0.051972,0.037576,0.2379421221864952,-0.23501900029231218,0.10420929552762351
1742920360.6951933,-1.016016,0.116266,-0.339099,0.073688,-0.0427,0.056852,0.2379421221864952,-0.23501900029231218,0.10420929552762351
1742920360.7337182,-1.183827,0.110654,-0.311527,0.06954,-0.01464,0.072712,0.2379421221864952,-0.23501900029231218,0.10420929552762351
1742920360.772248,-1.204323,0.10345599999999999,-0.260897,0.068808,0.0,0.052216,0.2379421221864952,-0.23501900029231218,0.10420929552762351
1742920360.8107777,-1.313086,0.08723,-0.20679,0.068808,-0.019764,0.02318,0.2379421221864952,-0.23501900029231218,0.10420929552762351
1742920360.849304,-1.342915,0.098576,-0.188612,0.05978,-0.034648,0.013663999999999999,0.2300496930722011,-0.23969599532300498,0.10947091493715289
1742920360.8878448,-1.230675,0.173667,-0.189466,0.046604,-0.025863999999999998,0.019032,0.2300496930722011,-0.23969599532300498,0.10947091493715289
1742920360.9356787,-1.125877,0.208376,-0.180133,0.043432,-0.000976,0.028059999999999998,0.2300496930722011,-0.23969599532300498,0.10947091493715289
1742920360.968356,-1.018395,0.20984,-0.145424,0.056119999999999996,0.026108,0.021471999999999998,0.2300496930722011,-0.23969599532300498,0.10947091493715289
1742920361.006793,-0.892247,0.17751,-0.117486,0.070272,0.035623999999999996,0.009516,0.2300496930722011,-0.23969599532300498,0.10947091493715289
1742920361.0492277,-0.724619,0.09406199999999999,-0.127856,0.07124799999999999,0.026595999999999998,-0.0068319999999999995,0.22186495176848875,-0.24232680502776965,0.13694826074247296
1742920361.0838847,-0.634583,0.044347,-0.163541,0.055388,0.007808,-0.020496,0.22186495176848875,-0.24232680502776965,0.13694826074247296
1742920361.1228018,-0.661484,0.038551999999999996,-0.194041,0.0366,-0.003904,-0.015372,0.22186495176848875,-0.24232680502776965,0.13694826074247296
1742920361.164124,-0.759572,0.053741,-0.195627,0.022203999999999998,-0.007076,-0.011224,0.22186495176848875,-0.24232680502776965,0.13694826074247296
1742920361.2003233,-0.842837,0.066917,-0.206851,0.011712,-0.013908,-0.018788,0.22186495176848875,-0.24232680502776965,0.13694826074247296
1742920361.2388608,-0.912987,0.064721,-0.254065,0.000488,-0.03782,-0.024399999999999998,0.22186495176848875,-0.24232680502776965,0.13694826074247296
1742920361.2792106,-1.026691,0.057583999999999996,-0.319396,-0.014395999999999999,-0.063196,-0.037332,0.2306343174510377,-0.22683425898859982,0.1275942706810874
1742920361.3159657,-1.113128,0.050508,-0.363987,-0.036112,-0.050508,-0.047092,0.2306343174510377,-0.22683425898859982,0.1275942706810874
1742920361.3544962,-1.208166,0.04392,-0.368257,-0.05856,-0.003904,-0.041479999999999996,0.2306343174510377,-0.22683425898859982,0.1275942706810874
1742920361.394322,-1.146068,-0.010065,-0.35014,-0.081252,0.054168,-0.02562,0.2306343174510377,-0.22683425898859982,0.1275942706810874
1742920361.4317179,-1.202066,-0.033489,-0.282186,-0.108092,0.07686,-0.030255999999999998,0.2306343174510377,-0.22683425898859982,0.1275942706810874
1742920361.4702675,-1.293566,-0.034648,-0.215086,-0.134932,0.076372,-0.054168,0.23501900029231218,-0.22595732242034494,0.12861736334405144
1742920361.5174594,-1.195051,-0.030805,-0.174704,-0.164456,0.020007999999999998,-0.058804,0.23501900029231218,-0.22595732242034494,0.12861736334405144
1742920361.5476127,-1.067195,-0.026291,-0.166286,-0.164456,0.020007999999999998,-0.058804,0.23501900029231218,-0.22595732242034494,0.12861736334405144
1742920361.586412,-0.9511729999999999,-0.021167,-0.174582,-0.172264,-0.008296,-0.04392,0.23501900029231218,-0.22595732242034494,0.12861736334405144
1742920361.6237273,-0.843874,-0.008784,-0.17763199999999998,-0.17568,-0.027327999999999998,-0.024399999999999998,0.23501900029231218,-0.22595732242034494,0.12861736334405144
1742920361.6622682,-0.7817149999999999,0.034159999999999996,-0.19276,-0.172508,-0.04392,-0.006344,0.24788073662671734,-0.24963460976322713,0.08623209587839813
1742920361.7008026,-0.708149,0.093574,-0.219966,-0.160308,-0.054412,-0.001464,0.24788073662671734,-0.24963460976322713,0.08623209587839813
1742920361.7401156,-0.726083,0.10668899999999999,-0.25193,-0.138592,-0.059536,-0.013663999999999999,0.24788073662671734,-0.24963460976322713,0.08623209587839813
1742920361.7860024,-0.818498,0.11651,-0.276391,-0.11102,-0.050996,-0.023912,0.24788073662671734,-0.24963460976322713,0.08623209587839813
1742920361.8171966,-0.901763,0.12017,-0.299876,-0.080764,-0.029036,-0.01952,0.24788073662671734,-0.24963460976322713,0.08623209587839813
1742920361.8557334,-0.922442,0.140483,-0.307867,-0.047824,-0.0053679999999999995,-0.012444,0.24788073662671734,-0.24963460976322713,0.08623209587839813
1742920361.901646,-0.998509,0.158783,-0.299571,-0.010492,0.0068319999999999995,-0.011224,0.26015784858228586,-0.2569424144986846,0.0586085939783689
1742920361.9328978,-1.0301069999999999,0.162809,-0.276147,0.026595999999999998,0.01342,0.008539999999999999,0.26015784858228586,-0.2569424144986846,0.0586085939783689
1742920361.9714077,-1.17425,0.174399,-0.256749,0.05368,0.005124,0.042943999999999996,0.26015784858228586,-0.2569424144986846,0.0586085939783689
1742920362.0173945,-1.1776659999999999,0.198555,-0.292251,0.079056,0.001464,0.066856,0.26015784858228586,-0.2569424144986846,0.0586085939783689
1742920362.0477846,-1.225612,0.229055,-0.291763,0.102236,0.009516,0.071736,0.26015784858228586,-0.2569424144986846,0.0586085939783689
1742920362.0863137,-1.415322,0.156587,-0.222162,0.108092,0.033428,0.035868,0.23911137094416837,-0.2584039754457761,0.09310143232972815
1742920362.131434,-1.2704469999999999,0.145302,-0.18226799999999999,0.099308,0.03172,0.0,0.23911137094416837,-0.2584039754457761,0.09310143232972815
1742920362.1641748,-0.985455,0.168299,-0.17299599999999998,0.098576,0.035136,-0.009028,0.23911137094416837,-0.2584039754457761,0.09310143232972815
1742920362.202704,-0.815082,0.138165,-0.153049,0.102968,0.047824,0.000732,0.23911137094416837,-0.2584039754457761,0.09310143232972815
1742920362.24864,-0.666791,0.092903,-0.14804699999999998,0.102968,0.047092,0.0068319999999999995,0.23911137094416837,-0.2584039754457761,0.09310143232972815
1742920362.279803,-0.608963,0.066551,-0.1586,0.10174799999999999,0.032208,0.003172,0.23092662964045602,-0.2306343174510377,0.12890967553346974
1742920362.3183486,-0.636352,0.058133,-0.170495,0.1037,0.015616,-0.0046359999999999995,0.23092662964045602,-0.2306343174510377,0.12890967553346974
1742920362.3643298,-0.698267,0.049349,-0.185684,0.106628,-0.000244,-0.011956,0.23092662964045602,-0.2306343174510377,0.12890967553346974
1742920362.39549,-0.771162,0.083082,-0.22508999999999998,0.10638399999999999,-0.028304,-0.011712,0.23092662964045602,-0.2306343174510377,0.12890967553346974
1742920362.4351242,-0.888587,0.083326,-0.30628099999999997,0.102724,-0.05978,-0.001952,0.23092662964045602,-0.2306343174510377,0.12890967553346974
1742920362.4731162,-1.066829,0.044835,-0.374296,0.088328,-0.070516,0.004148,0.23092662964045602,-0.2306343174510377,0.12890967553346974
1742920362.5122879,-1.203408,0.053375,-0.38978999999999997,0.062708,-0.039772,-0.006588,0.25109617071031864,-0.2136802104647764,0.13329435837474424
1742920362.5490193,-1.195661,0.026962,-0.366732,0.036844,0.01952,-0.010248,0.25109617071031864,-0.2136802104647764,0.13329435837474424
1742920362.5926561,-1.130452,-0.033549999999999996,-0.318359,0.008539999999999999,0.044164,-0.014884,0.25109617071031864,-0.2136802104647764,0.13329435837474424
1742920362.626114,-1.333033,-0.010126,-0.23588699999999999,-0.028304,0.022692,-0.020007999999999998,0.25109617071031864,-0.2136802104647764,0.13329435837474424
1742920362.6654203,-1.342061,0.0046359999999999995,-0.196298,-0.058804,0.02684,0.0017079999999999999,0.25109617071031864,-0.2136802104647764,0.13329435837474424
1742920362.7077184,-1.160769,-0.015616,-0.180133,-0.081496,0.03172,0.023912,0.24028061970184156,-0.2092955276235019,0.1359251680795089
1742920362.7425282,-1.090314,-0.013359,-0.161345,-0.10248,0.029523999999999998,0.013176,0.24028061970184156,-0.2092955276235019,0.1359251680795089
1742920362.7803414,-0.930616,-0.0066489999999999995,-0.147193,-0.11956,0.037087999999999996,0.007808,0.24028061970184156,-0.2092955276235019,0.1359251680795089
1742920362.8204324,-0.7844599999999999,0.016531,-0.14743699999999998,-0.125416,0.031476,0.015616,0.24028061970184156,-0.2092955276235019,0.1359251680795089
1742920362.8577597,-0.673623,0.034343,-0.17269099999999998,-0.116632,0.0053679999999999995,0.02562,0.24028061970184156,-0.2092955276235019,0.1359251680795089
1742920362.8967655,-0.641049,0.046299,-0.22356499999999999,-0.096624,-0.026595999999999998,0.01952,0.23092662964045602,-0.24086524408067816,0.1189710610932476
1742920362.9363298,-0.685457,0.067893,-0.276696,-0.066856,-0.05246,0.002928,0.23092662964045602,-0.24086524408067816,0.1189710610932476
1742920362.9739656,-0.760609,0.095953,-0.33275499999999997,-0.032452,-0.06831999999999999,-0.004392,0.23092662964045602,-0.24086524408067816,0.1189710610932476
1742920363.0125961,-0.869311,0.134261,-0.36966,0.0026839999999999998,-0.069052,-0.004392,0.23092662964045602,-0.24086524408067816,0.1189710610932476
1742920363.0516043,-1.006561,0.143533,-0.378627,0.034404,-0.044652,0.005124,0.23092662964045602,-0.24086524408067816,0.1189710610932476
1742920363.0888798,-1.068354,0.152012,-0.339831,0.061488,-0.008784,0.012931999999999999,0.23092662964045602,-0.24086524408067816,0.1189710610932476
1742920363.1274126,-1.163514,0.142374,-0.29761899999999997,0.083936,0.013908,0.021228,0.24671148786904415,-0.24437299035369775,0.11107863197895353
1742920363.1660357,-1.1274629999999999,0.120597,-0.287066,0.094916,0.020252,0.010492,0.24671148786904415,-0.24437299035369775,0.11107863197895353
1742920363.205275,-1.146129,0.168543,-0.276086,0.099308,-0.001952,0.0060999999999999995,0.24671148786904415,-0.24437299035369775,0.11107863197895353
1742920363.243822,-1.311134,0.13017399999999998,-0.243085,0.099796,-0.024644,0.027084,0.24671148786904415,-0.24437299035369775,0.11107863197895353
1742920363.2823765,-1.34139,0.100467,-0.218685,0.087596,-0.017568,0.029036,0.24671148786904415,-0.24437299035369775,0.11107863197895353
1742920363.3209367,-1.196454,0.126636,-0.218197,0.064416,0.004148,0.031476,0.23969599532300498,-0.23940368313358668,0.12569424144986846
1742920363.3594966,-1.020835,0.152622,-0.198799,0.049288,0.038796,0.035868,0.23969599532300498,-0.23940368313358668,0.12569424144986846
1742920363.3980746,-0.845704,0.141642,-0.163297,0.046848,0.06954,0.0366,0.23969599532300498,-0.23940368313358668,0.12569424144986846
1742920363.436639,-0.754509,0.10052799999999999,-0.132004,0.052216,0.071736,0.031476,0.23969599532300498,-0.23940368313358668,0.12569424144986846
1742920363.476341,-0.633973,0.047519,-0.13602999999999998,0.056119999999999996,0.053924,0.011467999999999999,0.23969599532300498,-0.23940368313358668,0.12569424144986846
1742920363.513983,-0.60573,0.019581,-0.166164,0.053436,0.0183,-0.012199999999999999,0.22011107863197896,-0.22888044431452792,0.14367144109909383
1742920363.5565093,-0.68564,0.019275999999999998,-0.211975,0.0427,-0.025863999999999998,-0.027084,0.22011107863197896,-0.22888044431452792,0.14367144109909383
1742920363.5901284,-0.7540209999999999,0.02135,-0.271694,0.024888,-0.062708,-0.035868,0.22011107863197896,-0.22888044431452792,0.14367144109909383
1742920363.6286647,-0.851926,0.065575,-0.344833,0.0060999999999999995,-0.094916,-0.04636,0.22011107863197896,-0.22888044431452792,0.14367144109909383
1742920363.6699545,-0.95953,0.081496,-0.427244,-0.006344,-0.106872,-0.04758,0.22011107863197896,-0.22888044431452792,0.14367144109909383
1742920363.7065332,-1.209264,0.0059169999999999995,-0.477081,-0.02318,-0.056608,-0.04758,0.22011107863197896,-0.22888044431452792,0.14367144109909383
1742920363.7450678,-1.322358,0.028548,-0.40180699999999997,-0.041236,0.037087999999999996,-0.0549,0.23940368313358668,-0.21514177141186788,0.12861736334405144
1742920363.78578,-1.215913,-0.038064,-0.296338,-0.054412,0.104432,-0.055144,0.23940368313358668,-0.21514177141186788,0.12861736334405144
1742920363.822195,-1.292041,-0.041053,-0.203374,-0.072468,0.081252,-0.056608,0.23940368313358668,-0.21514177141186788,0.12861736334405144
1742920363.8607488,-1.3717679999999999,-0.0068319999999999995,-0.172142,-0.08784,0.030255999999999998,-0.059536,0.23940368313358668,-0.21514177141186788,0.12861736334405144
1742920363.9009302,-1.162111,0.011712,-0.201483,-0.090524,0.005124,-0.052216,0.23940368313358668,-0.21514177141186788,0.12861736334405144
1742920363.9378927,-1.060363,0.0034159999999999998,-0.198982,-0.08881599999999999,0.0034159999999999998,-0.0183,0.23911137094416837,-0.21426483484361297,0.12496346097632272
1742920363.9764519,-0.961116,-0.036722,-0.16744499999999998,-0.093452,0.018788,0.015127999999999999,0.23911137094416837,-0.21426483484361297,0.12496346097632272
1742920364.0145168,-0.804346,-0.033489,-0.143411,-0.1037,0.011712,0.01342,0.23911137094416837,-0.21426483484361297,0.12496346097632272
1742920364.0528805,-0.695949,0.008479,-0.156831,-0.111752,-0.01586,0.0053679999999999995,0.23911137094416837,-0.21426483484361297,0.12496346097632272
1742920364.0914297,-0.657336,0.038918,-0.201483,-0.110288,-0.041236,0.017079999999999998,0.23911137094416837,-0.21426483484361297,0.12496346097632272
1742920364.129924,-0.651724,0.047397,-0.243512,-0.100772,-0.049288,0.028304,0.24115755627009647,-0.23648056123940367,0.10289389067524116
1742920364.1684709,-0.726876,0.075701,-0.285114,-0.08295999999999999,-0.037576,0.024888,0.24115755627009647,-0.23648056123940367,0.10289389067524116
1742920364.2077534,-0.8051389999999999,0.086925,-0.31768799999999997,-0.058072,-0.02562,0.016347999999999998,0.24115755627009647,-0.23648056123940367,0.10289389067524116
1742920364.246288,-0.975451,0.097966,-0.337635,-0.032695999999999996,-0.024644,0.003904,0.24115755627009647,-0.23648056123940367,0.10289389067524116
1742920364.2848861,-1.120204,0.093086,-0.341051,-0.010492,-0.014884,0.004148,0.24115755627009647,-0.23648056123940367,0.10289389067524116
1742920364.3234375,-1.2333589999999999,0.080398,-0.31903,0.008784,0.003172,0.021716,0.24115755627009647,-0.23648056123940367,0.10289389067524116
1742920364.3619785,-1.203103,0.09028,-0.307257,0.022203999999999998,0.023424,0.027327999999999998,0.24408067816427945,-0.24349605378544284,0.09865536392867583
1742920364.4005582,-1.121424,0.13786,-0.29731399999999997,0.029768,0.020252,0.037332,0.24408067816427945,-0.24349605378544284,0.09865536392867583
1742920364.4390693,-1.289845,0.105835,-0.264069,0.038064,-0.009271999999999999,0.06588,0.24408067816427945,-0.24349605378544284,0.09865536392867583
1742920364.4818256,-1.261114,0.071309,-0.257969,0.0427,0.025131999999999998,0.039772,0.24408067816427945,-0.24349605378544284,0.09865536392867583
1742920364.5164056,-1.102514,0.092598,-0.250283,0.0427,0.025131999999999998,0.039772,0.24408067816427945,-0.24349605378544284,0.09865536392867583
1742920364.5553753,-1.008696,0.098027,-0.193797,0.048556,0.051484,0.027084,0.22478807366267173,-0.2537269804150833,0.12160187079801228
1742920364.5925362,-0.9049349999999999,0.073505,-0.12871,0.054655999999999996,0.062464,0.018056,0.22478807366267173,-0.2537269804150833,0.12160187079801228
1742920364.6376686,-0.76006,0.01769,-0.110044,0.05246,0.04026,-0.004148,0.22478807366267173,-0.2537269804150833,0.12160187079801228
1742920364.669648,-0.62342,0.005307,-0.143594,0.036844,-0.00366,-0.042943999999999996,0.22478807366267173,-0.2537269804150833,0.12160187079801228
1742920364.7086322,-0.603229,0.022143,-0.204716,-0.001464,-0.055388,-0.037576,0.22478807366267173,-0.2537269804150833,0.12160187079801228
1742920364.754835,-0.68747,0.031842,-0.271816,-0.012931999999999999,-0.049532,-0.023667999999999998,0.2379421221864952,-0.24466530254311605,0.11414790996784566
1742920364.7860343,-0.830149,0.044896,-0.374845,-0.019275999999999998,-0.024644,-0.021471999999999998,0.2379421221864952,-0.24466530254311605,0.11414790996784566
1742920364.8245723,-0.962519,0.008845,-0.377895,-0.027084,0.010003999999999999,-0.038551999999999996,0.2379421221864952,-0.24466530254311605,0.11414790996784566
1742920364.8704793,-1.152839,0.04392,-0.335378,-0.034404,0.040748,-0.04636,0.2379421221864952,-0.24466530254311605,0.11414790996784566
1742920364.9016812,-1.155523,0.047458,-0.292312,-0.031964,0.058804,-0.022692,0.2379421221864952,-0.24466530254311605,0.11414790996784566
1742920364.9402153,-1.101965,-0.032635,-0.273707,-0.02928,0.03904,-0.015616,0.2379421221864952,-0.24700380005846242,0.12145571470330313
1742920364.9861436,-1.236958,-0.02013,-0.24851399999999998,-0.041479999999999996,-0.000488,-0.035868,0.2344343759134756,-0.24700380005846242,0.12145571470330313
1742920365.0173783,-1.281976,0.0030499999999999998,-0.23668,-0.053924,-0.00244,-0.020252,0.2344343759134756,-0.24700380005846242,0.12145571470330313
1742920365.0559275,-1.203835,-0.021167,-0.19794499999999998,-0.06344,0.017568,0.0017079999999999999,0.2344343759134756,-0.24700380005846242,0.12145571470330313
1742920365.1018023,-1.195783,-0.015677,-0.137433,-0.078812,0.032452,-0.000976,0.2344343759134756,-0.24700380005846242,0.12145571470330313
1742920365.1323745,-1.018151,0.020801,-0.102724,-0.092232,0.030012,-0.00122,0.2344343759134756,-0.24700380005846242,0.12145571470330313
1742920365.170782,-0.801601,0.04209,-0.128771,-0.096136,0.000976,0.011224,0.2332651271558024,-0.24934229757380882,0.10216311020169541
1742920365.215872,-0.614209,0.063074,-0.198921,-0.093452,-0.033916,0.020252,0.2332651271558024,-0.24934229757380882,0.10216311020169541
1742920365.2486293,-0.561261,0.09394,-0.261934,-0.085156,-0.062952,0.020496,0.2332651271558024,-0.24934229757380882,0.10216311020169541
1742920365.2871614,-0.698389,0.066002,-0.35465399999999997,-0.084668,-0.072468,0.020984,0.2332651271558024,-0.24934229757380882,0.10216311020169541
1742920365.3330722,-0.851865,0.048861,-0.462746,-0.105164,-0.048312,0.032452,0.2332651271558024,-0.24934229757380882,0.10216311020169541
1742920365.3642673,-0.983503,0.08295999999999999,-0.509716,-0.125172,0.012444,0.055876,0.2318035662087109,-0.28529669687225956,0.07556270096463022
1742920365.4028087,-1.080859,0.12425699999999999,-0.45017999999999997,-0.112484,0.077836,0.055632,0.2318035662087109,-0.28529669687225956,0.07556270096463022
1742920365.456139,-1.055788,0.134261,-0.350506,-0.074664,0.10467599999999999,0.016104,0.2318035662087109,-0.28529669687225956,0.07556270096463022
1742920365.4810324,-1.05896,0.14396,-0.288713,-0.036356,0.08003199999999999,-0.0183,0.2318035662087109,-0.28529669687225956,0.07556270096463022
1742920365.5195823,-1.049322,0.21337799999999998,-0.287798,-0.008052,0.040992,-0.026108,0.2318035662087109,-0.28529669687225956,0.07556270096463022
1742920365.5620413,-1.070489,0.28609,-0.297802,0.025376,0.015616,-0.017568,0.22478807366267173,-0.29055831628178896,0.08623209587839813
1742920365.5942776,-1.078724,0.23729,-0.277794,0.067588,0.011467999999999999,-0.008784,0.22478807366267173,-0.29055831628178896,0.08623209587839813
1742920365.6328173,-1.0301069999999999,0.144692,-0.237595,0.09467199999999999,0.004148,-0.004148,0.22478807366267173,-0.29055831628178896,0.08623209587839813
1742920365.677243,-1.059143,0.11468,-0.215635,0.090524,-0.01586,0.005856,0.22478807366267173,-0.29055831628178896,0.08623209587839813
1742920365.7105088,-1.1353929999999999,0.126087,-0.204045,0.083448,-0.030255999999999998,0.008296,0.22478807366267173,-0.29055831628178896,0.08623209587839813
1742920365.7494693,-0.998448,0.136213,-0.20862,0.08003199999999999,-0.024399999999999998,0.02562,0.22478807366267173,-0.29055831628178896,0.08623209587839813
1742920365.7921522,-0.9681919999999999,0.09759999999999999,-0.210267,0.07417599999999999,-0.020739999999999998,0.027084,0.22595732242034494,-0.2850043846828413,0.10216311020169541
1742920365.8269563,-0.860283,0.055388,-0.226798,0.063684,-0.020739999999999998,0.011224,0.22595732242034494,-0.2850043846828413,0.10216311020169541
1742920365.8655038,-0.735721,0.02684,-0.238144,0.05002,-0.01952,-0.003172,0.22595732242034494,-0.2850043846828413,0.10216311020169541
1742920365.907234,-0.7117479999999999,-0.002257,-0.242536,0.033672,-0.025376,-0.022203999999999998,0.22595732242034494,-0.2850043846828413,0.10216311020169541
1742920365.9426003,-0.770186,0.011407,-0.260897,0.012444,-0.028548,-0.046116,0.22595732242034494,-0.2850043846828413,0.10216311020169541
1742920365.98114,-0.7768349999999999,0.019581,-0.314821,-0.01098,-0.02196,-0.067344,0.24583455130078924,-0.2595732242034493,0.09865536392867583
1742920366.0223835,-0.835944,0.040809,-0.369843,-0.0366,-0.016104,-0.07564,0.24583455130078924,-0.2595732242034493,0.09865536392867583
1742920366.0581398,-1.023641,0.054534,-0.38234799999999997,-0.056608,-0.00976,-0.067588,0.24583455130078924,-0.2595732242034493,0.09865536392867583
1742920366.096233,-1.210545,0.059719,-0.353861,-0.067588,0.011224,-0.05124,0.24583455130078924,-0.2595732242034493,0.09865536392867583
1742920366.135139,-1.227137,-0.011101999999999999,-0.331901,-0.069296,0.023667999999999998,-0.039772,0.24583455130078924,-0.2595732242034493,0.09865536392867583
1742920366.173294,-1.199016,-0.029523999999999998,-0.30561,-0.082472,0.0,-0.034159999999999996,0.2522654194679918,-0.25665010230926627,0.07965507161648641
1742920366.211817,-1.306559,-0.043127,-0.28304,-0.096136,-0.033916,-0.022935999999999998,0.2522654194679918,-0.25665010230926627,0.07965507161648641
1742920366.2503567,-1.22793,-0.096197,-0.264618,-0.110288,-0.035868,-0.0427,0.2522654194679918,-0.25665010230926627,0.07965507161648641
1742920366.2896636,-1.0310219999999999,-0.021228,-0.22936,-0.13298,-0.02928,-0.052704,0.2522654194679918,-0.25665010230926627,0.07965507161648641
1742920366.3281975,-0.99979,0.000976,-0.188246,-0.14713199999999999,-0.025376,-0.01464,0.2522654194679918,-0.25665010230926627,0.07965507161648641
1742920366.3667476,-0.920307,6.1e-05,-0.171105,-0.150548,-0.017324,0.002196,0.2522654194679918,-0.25665010230926627,0.07965507161648641
1742920366.4053273,-0.773846,0.029585,-0.174216,-0.138836,-0.019275999999999998,-0.008052,0.2630809704764689,-0.26571178018123354,0.033469745688395204
