Timestamp,Accel X,Accel Y,Accel Z,Gyro X,Gyro Y,Gyro Z
1741711892.917621,-0.523685,0.853085,0.151951,-0.1575,2.19625,0.58625
1741711892.9200845,-0.521855,0.858026,0.150792,-0.14,-0.1225,0.6562500000000001
1741711892.922507,-0.521184,0.856196,0.1529879999999999,-0.2275,-0.18375,0.5337500000000001
1741711892.9249072,-0.5225259999999999,0.8590019999999999,0.152256,-0.2975,-0.09625,0.6212500000000001
1741711892.9274068,-0.526003,0.859185,0.150731,-0.245,0.06125,0.5337500000000001
1741711892.9298902,-0.521489,0.853024,0.152805,-0.1225,-0.02625,0.5162500000000001
1741711892.9322655,-0.524112,0.856684,0.149389,-0.28,-0.00875,0.6125
1741711892.9345644,-0.524905,0.852048,0.15067,-0.21875,-0.06125,0.455
1741711892.939817,-0.524295,0.852963,0.150853,-0.35,-0.0525,0.5075000000000001
1741711892.9432576,-0.5234409999999999,0.852475,0.152561,-0.14875,-0.13125,0.6475000000000001
1741711892.9469445,-0.519842,0.8489369999999999,0.150609,-0.13125,-0.105,0.49
1741711892.949947,-0.518378,0.8495469999999999,0.149938,-0.34125,-0.16625,0.5337500000000001
1741711892.9526317,-0.520818,0.849059,0.15006,-0.315,-0.1225,0.6300000000000001
1741711892.9554827,-0.528199,0.849974,0.151036,-0.2625,-0.1925,0.6212500000000001
1741711892.958902,-0.52155,0.853085,0.15128,-0.245,-0.07875,0.6300000000000001
1741711892.9613972,-0.522038,0.8510719999999999,0.150548,-0.28875,-0.20125,0.7000000000000001
1741711892.9642408,-0.521123,0.855159,0.15494,-0.07875,0.02625,0.6300000000000001
1741711892.9670467,-0.525393,0.853146,0.14762,-0.44625,-0.07875,0.58625
1741711892.9697552,-0.5219159999999999,0.8538169999999999,0.152439,-0.23625,-0.07875,0.55125
1741711892.9722614,-0.521245,0.8535119999999999,0.14884,-0.28875,2.1,0.46375
1741711892.9747667,-0.5216109999999999,0.849669,0.152866,-0.21875,-0.0525,0.6562500000000001
1741711892.9770746,-0.517158,0.851743,0.153232,-0.2975,-2.2225,0.525
1741711892.97973,-0.522587,0.8504619999999999,0.149023,-0.1925,-0.07875,0.55125
1741711892.9824352,-0.5188659999999999,0.848449,0.152134,-0.28,-0.04375,0.4725
1741711892.985122,-0.525942,0.850401,0.15006,-0.2625,-0.16625,0.5075000000000001
1741711892.9878275,-0.522465,0.852536,0.153415,-0.28,-0.14875,0.6212500000000001
1741711892.9904025,-0.522648,0.852414,0.153842,-0.20125,-0.07,0.7612500000000001
1741711892.9929385,-0.52338,0.854,0.155062,-0.21875,-0.07875,0.6475000000000001
1741711892.9956558,-0.525271,0.851865,0.1471319999999999,-0.28,0.0,0.69125
1741711892.9988122,-0.525088,0.8538169999999999,0.151524,-0.35,-0.07875,0.56
1741711893.0014946,-0.518439,0.8516819999999999,0.152622,-0.16625,-0.20125,0.5775
1741711893.0040748,-0.523075,0.85522,0.15372,-0.2625,-0.14,0.60375
1741711893.006642,-0.520757,0.856806,0.151707,-0.315,-0.14875,0.525
1741711893.009329,-0.527223,0.854183,0.149328,-0.25375,-0.0175,0.6562500000000001
1741711893.0118506,-0.520574,0.854061,0.150121,-0.245,-0.14875,0.5075000000000001
1741711893.0143836,-0.519354,0.851499,0.152317,-0.14875,-0.18375,0.58625
1741711893.0168662,-0.5197809999999999,0.851743,0.14762,-0.35,-0.105,0.58625
1741711893.0203557,-0.524112,0.852231,0.150792,-0.44625,-0.0875,0.48125
1741711893.02302,-0.521672,0.8495469999999999,0.1525,-0.25375,-0.07875,0.42875
1741711893.0255938,-0.5234409999999999,0.8477169999999999,0.1526829999999999,-0.23625,-0.18375,0.5337500000000001
1741711893.028168,-0.5237459999999999,0.850889,0.147498,-0.20125,-0.1225,0.5687500000000001
1741711893.0307648,-0.523868,0.8480219999999999,0.149877,-0.13125,-0.07,0.5775
1741711893.0332296,-0.520818,0.8471069999999999,0.154574,-0.2275,-0.04375,0.6300000000000001
1741711893.0355911,-0.522099,0.85217,0.151951,-0.1225,-0.14,0.525
1741711893.0378363,-0.520147,0.8522919999999999,0.149755,-0.28,-0.0875,0.6475000000000001
1741711893.0411034,-0.523197,0.855525,0.14945,-0.175,-0.21875,0.5337500000000001
1741711893.0440936,-0.52277,0.8568669999999999,0.153537,-0.16625,0.07,0.7875000000000001
1741711893.0464926,-0.522587,0.856318,0.155001,-0.21,-0.16625,0.6125
1741711893.0490427,-0.5191709999999999,0.854671,0.1406659999999999,-0.21,-0.02625,0.6825000000000001
1741711893.0516636,-0.521428,0.857233,0.148291,-0.1575,-0.06125,0.5337500000000001
1741711893.0541344,-0.52338,0.8574769999999999,0.152561,-0.2975,-0.00875,0.4375
1741711893.056573,-0.524539,0.85217,0.150243,-0.14875,-0.175,0.525
1741711893.0590017,-0.526613,0.853756,0.145058,-0.35,2.1612500000000003,0.58625
1741711893.061578,-0.524661,0.852048,0.153476,-0.28,-0.105,0.5425000000000001
1741711893.0645883,-0.523258,0.849791,0.14823,-0.16625,-0.07,0.46375
1741711893.0676534,-0.522648,0.851743,0.150792,-0.27125,-0.18375,0.5775
1741711893.070038,-0.518622,0.8501569999999999,0.156282,-0.21875,-0.14875,0.6212500000000001
1741711893.0726192,-0.525881,0.85156,0.150609,-0.3325,-0.11375,0.5337500000000001
1741711893.075225,-0.523075,0.854061,0.151951,-0.25375,-0.06125,0.6825000000000001
1741711893.0777051,-0.522282,0.850584,0.15067,-0.34125,-0.14875,0.6825000000000001
1741711893.0801156,-0.52643,0.8541219999999999,0.150975,-0.23625,-0.07875,0.6300000000000001
1741711893.0824783,-0.520269,0.850645,0.1492669999999999,-0.0525,-0.14,0.6300000000000001
1741711893.0860708,-0.521855,0.855464,0.148718,-0.14875,-0.175,0.6212500000000001
1741711893.0887322,-0.522709,0.854915,0.149328,-0.23625,-0.1575,0.665
1741711893.0913718,-0.525454,0.854915,0.149023,-0.37625,-0.105,0.5950000000000001
1741711893.093955,-0.523685,0.856196,0.154757,-0.245,-0.13125,0.6125
1741711893.0965974,-0.5213059999999999,0.85339,0.153781,-0.21875,-0.035,0.4725
1741711893.098992,-0.521855,0.854549,0.150792,-0.1925,-0.0875,0.6737500000000001
1741711893.1012075,-0.525454,0.8529019999999999,0.1477419999999999,-0.34125,-0.04375,0.5950000000000001
1741711893.103638,-0.525088,0.855403,0.1486569999999999,-0.2275,-0.07,0.55125
1741711893.1064348,-0.521428,0.853573,0.150121,-0.28875,-0.07875,0.49
1741711893.1094234,-0.522587,0.85156,0.151707,-0.18375,-0.175,0.5337500000000001
1741711893.1121824,-0.520025,0.8498519999999999,0.155001,-0.28,-0.1575,0.60375
1741711893.1147778,-0.521428,0.855098,0.151646,-0.30625,-0.175,0.5425000000000001
1741711893.1173244,-0.5228309999999999,0.853024,0.145973,-0.21875,-0.11375,0.77
1741711893.1198606,-0.524173,0.849913,0.145302,-0.30625,-0.16625,0.6737500000000001
1741711893.122315,-0.522343,0.856684,0.155733,-0.23625,-0.02625,0.5687500000000001
1741711893.124649,-0.522953,0.855098,0.153964,-0.23625,-0.14,0.7000000000000001
1741711893.1272173,-0.521489,0.85278,0.148474,-0.1575,-0.18375,0.49875
1741711893.130486,-0.523929,0.8559519999999999,0.149877,-0.1225,-0.035,0.5775
1741711893.1336355,-0.520574,0.852475,0.152195,-0.2625,0.00875,0.5075000000000001
1741711893.136462,-0.524539,0.851621,0.152012,-0.27125,-0.11375,0.49
1741711893.139086,-0.520269,0.853268,0.150243,-0.21875,-0.18375,0.56
1741711893.1417046,-0.5210009999999999,0.84973,0.149755,-0.30625,-0.0175,0.455
1741711893.1441743,-0.523807,0.849486,0.149877,-0.21875,-0.0525,0.5425000000000001
1741711893.1465864,-0.522282,0.8535119999999999,0.1548179999999999,-0.28875,-0.11375,0.5075000000000001
1741711893.1490288,-0.526003,0.854976,0.151341,-0.21875,-0.035,0.58625
1741711893.152702,-0.523502,0.8504619999999999,0.149999,-0.41125,-0.21,0.6212500000000001
1741711893.1557643,-0.526125,0.849669,0.150914,-0.11375,-0.04375,0.525
1741711893.1583476,-0.521062,0.851804,0.151158,-0.1925,-0.11375,0.5775
1741711893.162744,-0.524661,0.849059,0.148535,-0.20125,-0.16625,0.5950000000000001
1741711893.1654615,-0.524539,0.8516819999999999,0.151707,-0.1925,-0.07,0.55125
1741711893.1681206,-0.522892,0.853634,0.150304,-0.1575,-0.07875,0.6212500000000001
1741711893.1706283,-0.523807,0.8556469999999999,0.15189,-0.30625,-0.04375,0.46375
1741711893.173687,-0.525576,0.8547319999999999,0.148169,-0.21875,-0.16625,0.5950000000000001
1741711893.1767771,-0.522709,0.856684,0.152195,-0.3325,-0.0175,0.58625
1741711893.1801906,-0.527894,0.851804,0.152561,-0.25375,-0.1225,0.455
1741711893.1830769,-0.525637,0.8535119999999999,0.152012,-0.4025,-0.06125,0.5162500000000001
1741711893.1861017,-0.523014,0.853268,0.149572,-0.32375,-0.105,0.4375
1741711893.1897328,-0.522587,0.8529019999999999,0.151402,-0.23625,-0.2975,0.5775
1741711893.1936874,-0.521672,0.850401,0.150426,-0.21875,-0.13125,0.5337500000000001
1741711893.196751,-0.52277,0.85156,0.149633,-0.21875,0.0175,0.665
1741711893.199761,-0.5185,0.8516819999999999,0.150548,-0.2275,-0.0875,0.4725
1741711893.202679,-0.518195,0.853695,0.149999,-0.32375,-0.04375,0.5337500000000001
1741711893.2056005,-0.523807,0.850584,0.149694,-0.16625,-0.175,0.58625
1741711893.2087033,-0.522892,0.854915,0.151524,-0.2975,0.04375,0.58625
1741711893.211697,-0.523868,0.854671,0.153232,-0.25375,-0.1225,0.58625
1741711893.2144744,-0.5240509999999999,0.854976,0.148718,-0.28875,-0.035,0.5337500000000001
1741711893.217205,-0.523502,0.853451,0.152805,-0.18375,0.0175,0.5425000000000001
1741711893.2213085,-0.524844,0.852719,0.150731,-0.28875,-0.04375,0.49875
1741711893.2247682,-0.526796,0.855281,0.1520729999999999,-0.2275,-0.035,0.5162500000000001
1741711893.228207,-0.519842,0.855098,0.151524,-0.28875,-0.06125,0.6212500000000001
1741711893.2313983,-0.521855,0.850584,0.151219,-0.14875,-0.07,0.5775
1741711893.2349343,-0.525698,0.853939,0.148291,-0.28,2.1525000000000003,0.5775
1741711893.2378683,-0.520574,0.853695,0.1551229999999999,-0.35,-0.0875,0.6475000000000001
1741711893.2404585,-0.5240509999999999,0.85095,0.150731,-0.14,-0.13125,0.6212500000000001
1741711893.2430103,-0.526613,0.84973,0.145851,-0.385,-0.13125,0.7612500000000001
1741711893.2455869,-0.5246,0.853329,0.148535,-0.21,-2.21375,0.5687500000000001
1741711893.2483816,-0.520818,0.8522919999999999,0.151219,-0.175,-0.11375,0.56
1741711893.2518373,-0.52338,0.852963,0.150975,-0.16625,-0.11375,0.5425000000000001
1741711893.255314,-0.524844,0.8565619999999999,0.150121,-0.28875,-0.06125,0.5775
1741711893.2582643,-0.523807,0.8535119999999999,0.151341,-0.2625,-0.02625,0.5337500000000001
1741711893.2609406,-0.525698,0.8532069999999999,0.14884,-0.30625,-0.14,0.525
1741711893.2633994,-0.526064,0.855525,0.150365,-0.2975,-0.035,0.44625
1741711893.2661576,-0.523624,0.856074,0.151219,-0.21875,-0.09625,0.5162500000000001
1741711893.2688072,-0.522343,0.8525969999999999,0.1480469999999999,-0.2625,-0.035,0.5425000000000001
1741711893.2712896,-0.524844,0.8532069999999999,0.153842,-0.16625,-0.1225,0.5075000000000001
1741711893.2738976,-0.519659,0.847229,0.154452,-0.105,-0.06125,0.42875
1741711893.276563,-0.516853,0.852048,0.15067,-0.2275,-0.0525,0.525
1741711893.2796905,-0.5203909999999999,0.850218,0.149145,-0.4375,-0.00875,0.6125
1741711893.283796,-0.5237459999999999,0.855281,0.151707,-0.30625,-0.035,0.7087500000000001
1741711893.286385,-0.523014,0.8553419999999999,0.152866,-0.2275,-0.07875,0.58625
1741711893.2893038,-0.527589,0.8532069999999999,0.15067,-0.13125,-0.1575,0.56
1741711893.2922268,-0.519232,0.852841,0.1551229999999999,-0.21875,-0.035,0.5425000000000001
1741711893.295141,-0.522343,0.851255,0.151402,-0.21875,-0.14,0.42
1741711893.2978942,-0.526613,0.854976,0.151219,-0.28875,-0.105,0.665
1741711893.300722,-0.521794,0.851926,0.150243,-0.28,-0.105,0.60375
1741711893.303566,-0.521733,0.853329,0.1525,-0.07,-0.07875,0.5075000000000001
1741711893.3071983,-0.5213059999999999,0.851804,0.1520729999999999,-0.35,-0.14875,0.5687500000000001
1741711893.3106432,-0.521367,0.850279,0.150487,-0.28875,-0.0525,0.525
1741711893.3134315,-0.5237459999999999,0.8498519999999999,0.150609,-0.315,-0.11375,0.48125
1741711893.3162563,-0.524722,0.8504619999999999,0.148291,-0.25375,-0.07875,0.6125
1741711893.3191254,-0.523868,0.847839,0.150792,-0.245,-0.035,0.525
1741711893.3232417,-0.520818,0.8516819999999999,0.146705,-0.21,-0.04375,0.6125
1741711893.3271952,-0.5234409999999999,0.849608,0.149755,-0.1925,-0.06125,0.6212500000000001
1741711893.3300917,-0.521794,0.853634,0.150609,-0.16625,-0.09625,0.4025
1741711893.3330233,-0.524173,0.854183,0.152561,-0.28,-0.06125,0.55125
1741711893.3359196,-0.520818,0.853634,0.15128,-0.20125,-0.21,0.63875
1741711893.3393884,-0.526796,0.8547319999999999,0.151463,-0.21875,-0.07875,0.665
1741711893.342213,-0.519232,0.852353,0.150548,-0.21,-0.02625,0.55125
1741711893.3452532,-0.525149,0.853939,0.149877,-0.23625,0.0875,0.63875
1741711893.3492537,-0.522648,0.853085,0.149572,-0.245,-0.1225,0.5775
1741711893.3517582,-0.523075,0.851316,0.150731,-0.18375,-0.21,0.6475000000000001
1741711893.3548112,-0.526857,0.8498519999999999,0.145729,-0.25375,-0.02625,0.55125
1741711893.3585603,-0.522465,0.853451,0.151158,-0.18375,-0.13125,0.6212500000000001
1741711893.3622274,-0.522709,0.852414,0.150975,-0.25375,-0.0875,0.56
1741711893.3657165,-0.522465,0.851865,0.153476,-0.06125,-0.035,0.7262500000000001
1741711893.369424,-0.52216,0.850523,0.149511,-0.21,-0.06125,0.56
1741711893.3737152,-0.522343,0.8519869999999999,0.15067,-0.18375,-0.16625,0.6562500000000001
1741711893.3768544,-0.5219159999999999,0.8516819999999999,0.149877,-0.245,-0.1575,0.41125
1741711893.3805995,-0.524356,0.853939,0.15006,-0.2975,-0.1575,0.5775
1741711893.383988,-0.524478,0.852414,0.155916,-0.28875,-0.06125,0.48125
1741711893.3875537,-0.523685,0.8495469999999999,0.151036,-0.3325,-0.09625,0.49875
1741711893.3907545,-0.5222209999999999,0.848571,0.151402,-0.315,-0.06125,0.44625
1741711893.3946335,-0.5197809999999999,0.84912,0.151219,-0.16625,0.04375,0.44625
1741711893.398362,-0.5219159999999999,0.848205,0.151097,-0.1925,-0.11375,0.49
1741711893.4019043,-0.524844,0.85339,0.15311,-0.30625,0.0525,0.6125
1741711893.4051888,-0.522587,0.8513769999999999,0.152195,-0.07875,-0.11375,0.5425000000000001
1741711893.4090006,-0.52338,0.854793,0.154147,-0.42,-0.09625,0.63875
1741711893.4117937,-0.5228309999999999,0.854,0.152622,-0.09625,-0.1575,0.6300000000000001
1741711893.4152455,-0.519232,0.85705,0.151463,-0.175,-0.07,0.56
1741711893.4180954,-0.524966,0.851621,0.147681,-0.09625,-0.11375,0.455
1741711893.4214,-0.5210009999999999,0.8486319999999999,0.153049,-0.245,-0.07875,0.5950000000000001
1741711893.424315,-0.521733,0.852353,0.146949,-0.315,-0.07,0.49
1741711893.4275246,-0.523014,0.855281,0.1529879999999999,-0.34125,-0.105,0.5687500000000001
1741711893.4299858,-0.5188659999999999,0.8559519999999999,0.1532929999999999,-0.315,-0.0875,0.525
1741711893.432633,-0.521794,0.8538169999999999,0.151646,-0.245,-0.13125,0.44625
1741711893.4360597,-0.521428,0.853329,0.152622,-0.20125,-0.07,0.6562500000000001
1741711893.4397657,-0.518744,0.8477169999999999,0.151158,-0.2275,-0.13125,0.4725
1741711893.4430952,-0.523929,0.852414,0.153659,-0.105,-0.07875,0.49
1741711893.4473011,-0.524112,0.849181,0.151646,-0.11375,-0.0175,0.42
1741711893.4518356,-0.52155,0.853451,0.150731,-0.2975,-0.09625,0.5425000000000001
1741711893.4550111,-0.523197,0.8541219999999999,0.151097,-0.1225,-0.16625,0.49875
1741711893.459833,-0.524417,0.854244,0.151707,-0.23625,-0.105,0.7000000000000001
1741711893.4646745,-0.524661,0.854915,0.15128,-0.28,0.0,0.4725
1741711893.4696312,-0.52094,0.8513769999999999,0.149328,-0.28875,-0.0875,0.58625
1741711893.472912,-0.523258,0.852841,0.15067,-0.27125,-0.0875,0.665
1741711893.4762695,-0.525088,0.848754,0.156892,-0.25375,-0.1575,0.48125
1741711893.4812748,-0.524478,0.8538169999999999,0.152561,-0.13125,-0.07875,0.48125
1741711893.4845164,-0.522343,0.853329,0.154757,-0.2275,-0.06125,0.5162500000000001
1741711893.4877443,-0.524661,0.852109,0.1526829999999999,-0.18375,-0.1225,0.58625
1741711893.4915023,-0.521855,0.852841,0.150365,-0.00875,-0.035,0.5337500000000001
1741711893.4952395,-0.523075,0.849974,0.149328,-0.245,-0.06125,0.55125
1741711893.4986188,-0.5234409999999999,0.852048,0.154025,-0.11375,-0.14,0.6125
1741711893.5021317,-0.521855,0.850218,0.15128,-0.175,-0.14,0.5075000000000001
1741711893.5060675,-0.524539,0.85644,0.152744,-0.18375,-0.13125,0.5950000000000001
1741711893.5096931,-0.524905,0.8535119999999999,0.155001,-0.11375,-0.02625,0.49
1741711893.512866,-0.523868,0.85339,0.151829,-0.18375,-0.04375,0.55125
1741711893.5164766,-0.526308,0.853146,0.150609,-0.25375,-0.07,0.525
1741711893.5203807,-0.526674,0.8507669999999999,0.150487,-0.245,-0.035,0.6475000000000001
1741711893.5256815,-0.521977,0.852719,0.150487,-0.28,-0.20125,0.60375
1741711893.530369,-0.523197,0.853085,0.150853,-0.09625,-0.13125,0.69125
1741711893.5373693,-0.5240509999999999,0.852475,0.153232,-0.25375,-0.07875,0.56
1741711893.5419352,-0.522709,0.85339,0.149999,-0.21875,-0.0525,0.58625
1741711893.5467782,-0.525271,0.853756,0.150731,-0.245,-0.0525,0.63875
1741711893.551878,-0.524417,0.849608,0.151219,-0.245,-0.07,0.5775
1741711893.5556448,-0.5219159999999999,0.854366,0.151341,-0.2975,-0.18375,0.455
1741711893.5582433,-0.522953,0.854793,0.151402,-0.28875,-0.07875,0.56
1741711893.5618296,-0.520879,0.852109,0.150609,-0.20125,-0.04375,0.60375
1741711893.5651343,-0.521123,0.853024,0.153232,-0.21,-0.14875,0.5775
1741711893.5689504,-0.523624,0.854061,0.151097,-0.34125,-0.105,0.63875
1741711893.5716674,-0.525088,0.8538169999999999,0.150731,-0.2275,-0.18375,0.5950000000000001
1741711893.574683,-0.523319,0.85644,0.153537,-0.25375,-0.16625,0.49
1741711893.577386,-0.518683,0.8538169999999999,0.149084,-0.245,-0.1225,0.5162500000000001
1741711893.5800352,-0.525637,0.852231,0.148718,-0.385,-0.14875,0.6475000000000001
1741711893.5831895,-0.523075,0.851621,0.151158,-0.35,-0.07875,0.5075000000000001
1741711893.5863636,-0.526735,0.85522,0.154025,-0.21,0.0,0.48125
1741711893.5907226,-0.5222209999999999,0.854244,0.150182,-0.20125,-0.04375,0.5687500000000001
1741711893.5939257,-0.52338,0.853146,0.150304,-0.21,-0.14,0.5075000000000001
1741711893.5973558,-0.525881,0.853573,0.150792,-0.21875,-0.14,0.5775
1741711893.6014018,-0.525332,0.85217,0.150243,-0.11375,0.00875,0.5425000000000001
1741711893.6054573,-0.522099,0.852841,0.148169,-0.18375,0.00875,0.55125
1741711893.6089113,-0.522404,0.8513769999999999,0.151402,-0.1925,-0.105,0.55125
1741711893.613767,-0.520879,0.8522919999999999,0.155489,-0.21,-0.1575,0.6125
1741711893.6184063,-0.523075,0.85339,0.1471319999999999,-0.2275,-0.09625,0.5337500000000001
1741711893.6216702,-0.518317,0.853451,0.153354,-0.09625,-0.11375,0.55125
1741711893.6270082,-0.5228309999999999,0.8541219999999999,0.151341,-0.2625,-0.2275,0.56
1741711893.632578,-0.519598,0.853085,0.1539029999999999,-0.0525,-0.11375,0.5162500000000001
1741711893.6359377,-0.526979,0.852353,0.150304,-0.25375,0.09625,0.5162500000000001
1741711893.6395743,-0.524173,0.85156,0.150426,-0.25375,-0.02625,0.6212500000000001
1741711893.6431165,-0.525027,0.8498519999999999,0.148779,-0.25375,-0.1925,0.5162500000000001
1741711893.6462238,-0.524661,0.855525,0.149206,-0.18375,-0.0875,0.5337500000000001
1741711893.6514535,-0.523014,0.850645,0.152622,-0.2275,-0.07875,0.60375
1741711893.6557946,-0.523563,0.852475,0.150487,-0.21875,-0.04375,0.5775
1741711893.659271,-0.5188659999999999,0.851194,0.147254,-0.32375,-0.14875,0.5950000000000001
1741711893.663689,-0.525027,0.8522919999999999,0.153964,-0.11375,-0.14,0.6300000000000001
1741711893.666881,-0.5197809999999999,0.8547319999999999,0.152927,-0.28875,-0.14,0.5337500000000001
1741711893.6729774,-0.5225259999999999,0.856135,0.1523779999999999,-0.09625,-0.13125,0.55125
1741711893.6773086,-0.526308,0.854915,0.149511,-0.28,-0.02625,0.5162500000000001
1741711893.680873,-0.520757,0.852414,0.152866,-0.2975,-0.04375,0.525
1741711893.684111,-0.52216,0.851865,0.153537,-0.23625,-0.21875,0.55125
1741711893.68756,-0.52277,0.8501569999999999,0.149938,-0.23625,-0.0525,0.6300000000000001
1741711893.691187,-0.523868,0.853451,0.154025,-0.21875,-0.09625,0.5425000000000001
1741711893.6941402,-0.525942,0.854244,0.153781,-0.175,-0.16625,0.5775
1741711893.696756,-0.528809,0.854366,0.149816,-0.32375,-0.14,0.48125
1741711893.6995945,-0.524722,0.851255,0.153232,-0.13125,-0.0525,0.7087500000000001
1741711893.7039106,-0.522648,0.851011,0.149328,-0.2275,-0.0875,0.49875
1741711893.7070272,-0.523319,0.852719,0.152256,-0.21,-0.0175,0.5162500000000001
1741711893.7098272,-0.520818,0.8516819999999999,0.148108,-0.27125,-0.07,0.6212500000000001
1741711893.7125964,-0.522343,0.8544269999999999,0.153171,-0.27125,-0.07,0.5775
1741711893.71566,-0.518927,0.853451,0.155245,-0.28875,-0.13125,0.49
1741711893.7183142,-0.525759,0.853451,0.150792,-0.21,-0.04375,0.665
1741711893.7211137,-0.526735,0.851255,0.147864,-0.35875,-0.04375,0.4725
1741711893.7240157,-0.525149,0.8516819999999999,0.146339,-0.18375,-0.13125,0.5687500000000001
1741711893.7270582,-0.521428,0.851499,0.154452,-0.2975,-0.14875,0.56
1741711893.730358,-0.523197,0.849791,0.149572,-0.21875,-0.09625,0.5775
1741711893.7332091,-0.524783,0.851499,0.151219,-0.28875,-0.00875,0.5337500000000001
1741711893.736202,-0.5222209999999999,0.850401,0.151402,-0.245,-0.04375,0.60375
1741711893.7391503,-0.519659,0.852536,0.152866,-0.25375,-0.07875,0.6737500000000001
1741711893.7420182,-0.5240509999999999,0.85461,0.15311,-0.315,-0.0175,0.74375
1741711893.7446947,-0.524356,0.851255,0.15006,-0.315,-0.06125,0.6562500000000001
1741711893.7477973,-0.519903,0.8522919999999999,0.15311,-0.21875,-0.1225,0.56
1741711893.7510755,-0.520025,0.8547319999999999,0.150121,-0.14875,0.0525,0.7087500000000001
1741711893.754247,-0.523075,0.852109,0.149572,-0.245,-0.2275,0.60375
1741711893.756968,-0.521245,0.854,0.151341,-0.28,-0.07,0.5687500000000001
1741711893.7594345,-0.522282,0.853939,0.154574,-0.245,-0.07,0.6125
1741711893.7618327,-0.527894,0.8562569999999999,0.150182,-0.20125,-0.14,0.5425000000000001
1741711893.7641735,-0.5216109999999999,0.851499,0.151036,-0.1925,-0.105,0.455
1741711893.7664073,-0.519415,0.8516819999999999,0.154147,-0.2625,-0.16625,0.60375
1741711893.768701,-0.5152059999999999,0.852475,0.154269,-0.2275,-0.04375,0.5425000000000001
1741711893.7722924,-0.52399,0.85156,0.150365,-0.1925,0.0,0.5950000000000001
1741711893.7751472,-0.518378,0.852353,0.152927,-0.21875,-0.00875,0.56
1741711893.77749,-0.52521,0.85217,0.156587,-0.245,-0.175,0.665
1741711893.7799778,-0.525942,0.8532069999999999,0.150426,-0.28,-0.13125,0.525
1741711893.78236,-0.524661,0.85156,0.150243,-0.25375,-0.11375,0.6562500000000001
1741711893.7847028,-0.523258,0.851865,0.154025,-0.27125,-0.035,0.60375
1741711893.7869227,-0.524966,0.8541219999999999,0.150365,-0.09625,-0.11375,0.6125
1741711893.7891147,-0.526003,0.853024,0.153659,-0.245,-0.175,0.5775
1741711893.792748,-0.521733,0.851865,0.152927,-0.315,0.0,0.63875
1741711893.7956674,-0.5225259999999999,0.85461,0.152317,-0.315,2.1612500000000003,0.4725
1741711893.7981448,-0.528077,0.852536,0.148169,-0.2275,-0.02625,0.6125
1741711893.8005571,-0.521367,0.8529019999999999,0.147498,-0.28,-0.1925,0.60375
1741711893.802828,-0.521123,0.85461,0.150304,-0.27125,-0.105,0.63875
1741711893.8050978,-0.523624,0.8532069999999999,0.150426,-0.1225,-0.06125,0.42875
1741711893.8073962,-0.524966,0.856196,0.151097,-0.1575,-0.1225,0.55125
1741711893.809753,-0.525576,0.851011,0.147986,-0.21875,0.06125,0.525
1741711893.8122008,-0.52338,0.853451,0.1526829999999999,-0.2625,-0.00875,0.6125
1741711893.8144338,-0.522709,0.850828,0.151585,-0.18375,-0.1225,0.55125
1741711893.8167603,-0.525637,0.851255,0.144692,-0.21875,0.0,0.56
1741711893.8193145,-0.524722,0.850645,0.151463,-0.32375,-0.04375,0.5950000000000001
1741711893.8222272,-0.525576,0.852658,0.149816,-0.2275,-0.09625,0.48125
1741711893.82487,-0.525393,0.852414,0.147864,-0.21875,0.0,0.6125
1741711893.8284256,-0.52399,0.85278,0.152012,-0.27125,-0.0525,0.5425000000000001
1741711893.8313854,-0.522709,0.85522,0.151097,-0.1575,-0.0175,0.6300000000000001
1741711893.8341117,-0.52399,0.8513769999999999,0.151768,-0.18375,-0.07,0.56
1741711893.8366113,-0.525393,0.852963,0.147071,-0.175,-0.1925,0.6212500000000001
1741711893.839221,-0.5206959999999999,0.848205,0.143472,-0.35,-0.0525,0.49
1741711893.842708,-0.524356,0.853573,0.150731,-0.2975,-0.06125,0.42
1741711893.8467312,-0.521184,0.849791,0.149511,-0.21875,-0.07,0.63875
1741711893.85019,-0.52338,0.856074,0.151097,-0.21875,0.035,0.5687500000000001
1741711893.8551378,-0.522404,0.853756,0.1525,-0.2975,-0.105,0.49875
1741711893.8584986,-0.521245,0.853329,0.150975,-0.21875,-0.0875,0.525
1741711893.8638551,-0.524234,0.849486,0.152805,-0.315,-0.04375,0.6737500000000001
1741711893.8674448,-0.522648,0.851621,0.149755,-0.16625,-0.245,0.56
1741711893.8706555,-0.521123,0.854183,0.153476,-0.315,-0.09625,0.55125
1741711893.8748257,-0.5213059999999999,0.853756,0.15128,-0.11375,-0.11375,0.455
1741711893.8801186,-0.522465,0.851621,0.1525,-0.04375,-2.2225,0.6212500000000001
1741711893.8841553,-0.522709,0.853024,0.153232,-0.30625,-0.13125,0.5075000000000001
1741711893.8875008,-0.524539,0.85339,0.1539029999999999,-0.2625,-0.00875,0.5162500000000001
1741711893.891807,-0.522038,0.851865,0.1526829999999999,-0.245,0.0175,0.55125
1741711893.8959806,-0.522343,0.850279,0.15189,-0.1925,-0.00875,0.6125
1741711893.9019156,-0.521794,0.855769,0.151463,-0.30625,-0.04375,0.6825000000000001
1741711893.904796,-0.5210009999999999,0.850218,0.152561,-0.21875,0.105,0.49875
1741711893.907759,-0.519964,0.852536,0.149145,-0.35875,-0.0175,0.56
1741711893.9107747,-0.520879,0.8529019999999999,0.151768,-0.21875,-0.07875,0.5775
1741711893.9143217,-0.524905,0.853451,0.1492669999999999,-0.175,-0.04375,0.5425000000000001
1741711893.919852,-0.523014,0.8529019999999999,0.151219,-0.245,-0.0175,0.55125
1741711893.925145,-0.523868,0.850889,0.149511,-0.35875,-0.0875,0.5775
1741711893.927844,-0.524661,0.851316,0.1529879999999999,-0.4025,-0.14875,0.49
1741711893.931308,-0.519049,0.8535119999999999,0.154269,-0.21,-0.14,0.665
1741711893.9346309,-0.523563,0.8538169999999999,0.150182,-0.23625,-0.0875,0.56
1741711893.93856,-0.522892,0.848815,0.149572,-0.28,-0.07875,0.525
1741711893.9427147,-0.524234,0.850645,0.151036,-0.1575,-0.04375,0.49
1741711893.9471114,-0.521794,0.851926,0.15128,-0.30625,-0.04375,0.58625
1741711893.9517105,-0.5210009999999999,0.852963,0.152134,-0.21,-0.09625,0.6212500000000001
1741711893.955865,-0.524234,0.8507669999999999,0.14945,-0.1925,-0.14875,0.6212500000000001
1741711893.9600537,-0.524905,0.853756,0.151829,-0.20125,-0.04375,0.58625
1741711893.9647152,-0.523258,0.854061,0.15006,-0.27125,-0.0875,0.56
1741711893.9715536,-0.524661,0.854976,0.150304,-0.0525,-0.105,0.5775
1741711893.975592,-0.524356,0.8513769999999999,0.150792,-0.32375,-0.07875,0.60375
1741711893.9794955,-0.522587,0.851743,0.151524,-0.09625,-0.1225,0.60375
1741711893.9844172,-0.5206959999999999,0.8510719999999999,0.150304,-0.3325,-0.09625,0.48125
1741711893.9878683,-0.5200859999999999,0.853695,0.151524,-0.1925,-0.1925,0.48125
1741711893.9915664,-0.521062,0.848876,0.149816,-0.32375,-0.0175,0.5425000000000001
1741711893.9955368,-0.52094,0.852536,0.1520729999999999,-0.3325,-0.07,0.63875
1741711893.9992118,-0.522343,0.8513769999999999,0.1523779999999999,-0.25375,-0.06125,0.5687500000000001
1741711894.00394,-0.523685,0.856806,0.153537,-0.14875,0.0175,0.6125
1741711894.007776,-0.5225259999999999,0.852414,0.151402,-0.23625,-0.11375,0.5425000000000001
1741711894.011429,-0.525088,0.852475,0.151158,-0.11375,-0.07,0.5950000000000001
1741711894.0157852,-0.524966,0.851743,0.152744,-0.20125,-0.06125,0.6737500000000001
1741711894.018639,-0.526918,0.853573,0.1539029999999999,-0.25375,-0.06125,0.55125
1741711894.0226195,-0.5246,0.853756,0.1529879999999999,-0.25375,-0.00875,0.56
1741711894.0291069,-0.522709,0.852658,0.151097,-0.175,-0.09625,0.4375
1741711894.0340245,-0.522587,0.8501569999999999,0.152134,-0.16625,-0.13125,0.49875
1741711894.040478,-0.525454,0.852353,0.151829,-0.21875,-0.07875,0.5950000000000001
1741711894.0444272,-0.523197,0.85278,0.150304,-0.28875,-0.07,0.58625
1741711894.0483856,-0.521123,0.850401,0.152744,-0.28,0.00875,0.5687500000000001
1741711894.0523026,-0.523197,0.851804,0.150853,-0.2275,-0.04375,0.5075000000000001
1741711894.0559614,-0.5231359999999999,0.8525969999999999,0.149999,-0.25375,-0.11375,0.5337500000000001
1741711894.0599012,-0.521733,0.85034,0.149816,-0.21875,-0.09625,0.6825000000000001
1741711894.0625684,-0.520757,0.851804,0.150609,-0.20125,-0.105,0.63875
1741711894.0661497,-0.522282,0.853878,0.153476,-0.1925,0.04375,0.6212500000000001
1741711894.0705245,-0.521794,0.854061,0.151463,-0.245,-0.09625,0.5950000000000001
1741711894.075017,-0.521428,0.851743,0.150487,-0.20125,-0.0525,0.55125
1741711894.0786812,-0.522099,0.854976,0.15189,-0.32375,-0.0525,0.5687500000000001
1741711894.0820534,-0.52338,0.8550369999999999,0.153842,-0.1575,-0.0875,0.6125
1741711894.0846689,-0.52277,0.8522919999999999,0.155306,-0.28,-0.0175,0.5337500000000001
1741711894.088814,-0.52155,0.853634,0.15006,-0.105,-0.02625,0.6300000000000001
1741711894.092819,-0.52155,0.8556469999999999,0.149877,-0.11375,-0.04375,0.665
1741711894.0957124,-0.521855,0.850584,0.148108,-0.18375,-0.105,0.5425000000000001
1741711894.0991917,-0.524844,0.850889,0.152012,-0.21,-0.1575,0.58625
1741711894.1028771,-0.521428,0.853634,0.151341,-0.1925,-0.11375,0.5425000000000001
1741711894.1058323,-0.521672,0.854061,0.149511,-0.1925,-0.105,0.49
1741711894.1112452,-0.523014,0.853634,0.150975,-0.1925,-0.0175,0.56
1741711894.1155844,-0.520513,0.853329,0.149023,-0.16625,-0.23625,0.58625
1741711894.118999,-0.5213059999999999,0.855159,0.151402,-0.21875,-0.16625,0.58625
1741711894.1222873,-0.522892,0.8535119999999999,0.148779,-0.2275,0.0,0.55125
1741711894.1258752,-0.526003,0.85278,0.150609,-0.1925,-0.14,0.49875
1741711894.1290376,-0.523685,0.851011,0.154086,-0.11375,-0.06125,0.5775
1741711894.1318336,-0.52399,0.850401,0.14945,-0.28875,0.00875,0.5425000000000001
1741711894.1369677,-0.521367,0.851743,0.150243,-0.21875,-0.1575,0.49875
1741711894.1400387,-0.52521,0.8547319999999999,0.150304,-0.25375,0.0,0.6300000000000001
1741711894.1433733,-0.519903,0.854244,0.15372,-0.315,0.0175,0.5337500000000001
1741711894.146392,-0.522038,0.852841,0.148779,-0.16625,-0.1225,0.6737500000000001
1741711894.1488934,-0.523929,0.852353,0.149694,-0.28,-0.11375,0.7087500000000001
1741711894.152901,-0.524295,0.853024,0.152927,-0.20125,-0.09625,0.5162500000000001
1741711894.1581843,-0.522343,0.851194,0.150792,-0.1225,-0.04375,0.4725
1741711894.1610525,-0.524966,0.852109,0.148535,-0.27125,-0.07,0.5425000000000001
1741711894.1641536,-0.521672,0.850645,0.151646,-0.0875,-0.09625,0.4725
1741711894.16737,-0.519537,0.854,0.149328,-0.18375,-0.07,0.55125
1741711894.1704988,-0.5216109999999999,0.85095,0.1539029999999999,-0.2275,-0.1575,0.6737500000000001
1741711894.1734016,-0.522465,0.8501569999999999,0.150731,-0.35875,-0.2275,0.63875
1741711894.176308,-0.523014,0.8510719999999999,0.152866,-0.28875,-0.18375,0.58625
1741711894.1819007,-0.52033,0.8544269999999999,0.150121,-0.34125,-0.06125,0.525
1741711894.1849902,-0.524112,0.8510719999999999,0.152256,-0.13125,-0.14875,0.6300000000000001
1741711894.1881475,-0.523807,0.852719,0.1526829999999999,-0.14875,-0.16625,0.58625
1741711894.1909747,-0.525454,0.852658,0.149084,-0.2625,-0.1575,0.5687500000000001
1741711894.1942844,-0.524722,0.852353,0.151951,-0.1575,-0.00875,0.6737500000000001
1741711894.1979833,-0.52277,0.852963,0.151402,-0.11375,-0.07875,0.60375
1741711894.2025528,-0.5231359999999999,0.852536,0.149023,-0.21875,0.00875,0.60375
1741711894.205722,-0.525454,0.851926,0.1520729999999999,-0.28875,-0.14875,0.4725
1741711894.2097683,-0.519537,0.853451,0.151585,-0.14875,-0.175,0.6125
1741711894.2130997,-0.525454,0.852963,0.152744,-0.23625,-0.04375,0.60375
1741711894.2162492,-0.5216109999999999,0.851194,0.152012,-0.20125,-2.23125,0.525
1741711894.2201076,-0.519354,0.84851,0.151585,-0.25375,-0.105,0.525
1741711894.223453,-0.5216109999999999,0.852719,0.150426,-0.28,-0.09625,0.6300000000000001
1741711894.2265162,-0.526186,0.854671,0.15372,-0.21875,-0.0525,0.6125
1741711894.2306397,-0.524356,0.8529019999999999,0.152439,-0.3325,-0.0875,0.525
1741711894.2332106,-0.516304,0.852841,0.152134,-0.16625,-0.2275,0.56
1741711894.2365155,-0.525027,0.8529019999999999,0.150853,-0.27125,-0.09625,0.5425000000000001
1741711894.2404635,-0.521489,0.852048,0.152622,-0.175,0.0525,0.5775
1741711894.2444687,-0.5210009999999999,0.8535119999999999,0.150914,-0.16625,-0.07875,0.55125
1741711894.247943,-0.5234409999999999,0.853085,0.150426,-0.20125,-0.09625,0.56
1741711894.2515266,-0.524234,0.855525,0.15128,-0.105,-0.035,0.455
1741711894.254794,-0.525393,0.854854,0.149877,-0.14,-0.105,0.49
1741711894.257281,-0.5182559999999999,0.849608,0.14701,-0.315,-0.07,0.5950000000000001
1741711894.2605734,-0.524295,0.852353,0.1523779999999999,-0.175,-0.16625,0.56
1741711894.2645743,-0.524295,0.853878,0.152805,-0.315,-0.11375,0.7525000000000001
1741711894.2690272,-0.5231359999999999,0.8507669999999999,0.152439,-0.23625,-0.035,0.6737500000000001
1741711894.2720673,-0.5246,0.850035,0.149572,-0.07875,-0.07875,0.5950000000000001
1741711894.2751465,-0.522709,0.850523,0.149755,-0.20125,-0.09625,0.6125
1741711894.278642,-0.5222209999999999,0.851865,0.149877,-0.25375,-0.13125,0.56
1741711894.282554,-0.525149,0.85339,0.1526829999999999,-0.1575,-0.0525,0.6125
1741711894.2878392,-0.524722,0.85217,0.151768,-0.385,-0.13125,0.6300000000000001
1741711894.2910995,-0.521245,0.851804,0.155428,-0.105,-0.13125,0.60375
1741711894.294253,-0.521855,0.853451,0.150792,-0.21875,-0.11375,0.6125
1741711894.2973063,-0.52338,0.852353,0.1526829999999999,-0.1925,-0.16625,0.665
1741711894.301371,-0.522343,0.85278,0.150914,-0.25375,-0.04375,0.49
1741711894.3048332,-0.522465,0.852536,0.149328,-0.34125,-0.1575,0.525
1741711894.308292,-0.521489,0.851255,0.151829,-0.21875,-0.04375,0.5687500000000001
1741711894.3113575,-0.525454,0.852414,0.148901,-0.30625,-0.175,0.5687500000000001
1741711894.3160217,-0.5222209999999999,0.851255,0.150731,-0.28875,-0.14875,0.60375
1741711894.3190672,-0.523929,0.853451,0.147986,-0.28,-0.07,0.46375
1741711894.322605,-0.5228309999999999,0.849364,0.148901,-0.37625,-0.06125,0.5950000000000001
1741711894.3260045,-0.520208,0.853939,0.1526829999999999,-0.25375,0.00875,0.5687500000000001
1741711894.3296318,-0.526125,0.8529019999999999,0.15311,-0.0175,-0.09625,0.6562500000000001
1741711894.33263,-0.526186,0.851011,0.148779,-0.2975,-0.0525,0.7175
1741711894.3357532,-0.523075,0.850828,0.148291,-0.35,0.0,0.6562500000000001
1741711894.3402646,-0.522648,0.8541219999999999,0.149938,-0.28875,-0.105,0.5950000000000001
1741711894.342829,-0.5246,0.851743,0.146888,-0.315,-0.07,0.55125
1741711894.3459463,-0.525576,0.8501569999999999,0.149694,-0.175,0.0175,0.6125
1741711894.350158,-0.523319,0.852658,0.148718,-0.25375,-0.07,0.6300000000000001
1741711894.3555307,-0.526857,0.851865,0.150548,-0.245,-0.1575,0.525
1741711894.3608613,-0.52216,0.855281,0.152622,-0.2275,-0.20125,0.58625
1741711894.363861,-0.523868,0.85339,0.150853,-0.1575,-0.13125,0.5950000000000001
1741711894.3668118,-0.523319,0.853085,0.1489619999999999,-0.245,-0.2275,0.6212500000000001
1741711894.3699524,-0.525454,0.854,0.149572,-0.1225,-0.175,0.5950000000000001
1741711894.373901,-0.519293,0.85217,0.149755,-0.13125,-0.04375,0.6300000000000001
1741711894.3775744,-0.518744,0.8504619999999999,0.155428,-0.315,-0.175,0.58625
1741711894.3814113,-0.521367,0.8559519999999999,0.152317,-0.27125,-0.21,0.5337500000000001
1741711894.384521,-0.523075,0.852841,0.14945,-0.175,-0.1225,0.41125
1741711894.387667,-0.523807,0.853024,0.1523779999999999,-0.14,-0.04375,0.6125
1741711894.390785,-0.524417,0.852414,0.15067,-0.21875,-0.09625,0.6300000000000001
1741711894.3941886,-0.521672,0.850889,0.14884,-0.28875,-0.13125,0.6475000000000001
1741711894.4015603,-0.52155,0.852841,0.151219,-0.16625,-0.04375,0.5337500000000001
1741711894.4043512,-0.522587,0.8535119999999999,0.14762,-0.2625,-0.07875,0.60375
1741711894.407689,-0.522038,0.852414,0.150365,-0.18375,0.02625,0.5950000000000001
1741711894.4105053,-0.522587,0.850828,0.147986,-0.2975,-0.18375,0.55125
1741711894.4144871,-0.5213059999999999,0.852048,0.147315,-0.21875,-0.06125,0.5775
1741711894.4181,-0.524112,0.852048,0.152012,-0.18375,0.0175,0.6212500000000001
1741711894.4231613,-0.525088,0.8529019999999999,0.1489619999999999,-0.3325,-0.245,0.6300000000000001
1741711894.4270737,-0.524295,0.853939,0.1489619999999999,-0.2275,-0.04375,0.5337500000000001
1741711894.4306366,-0.521489,0.852475,0.15189,-0.1925,-0.07875,0.5950000000000001
1741711894.4334216,-0.52277,0.854549,0.150121,-0.1925,-0.14,0.5075000000000001
1741711894.436888,-0.5200859999999999,0.853085,0.152012,-0.28875,-0.035,0.7000000000000001
1741711894.4418354,-0.526613,0.851865,0.150609,-0.32375,-0.14,0.55125
1741711894.445069,-0.5213059999999999,0.856623,0.154025,-0.21875,0.105,0.55125
1741711894.4478607,-0.5231359999999999,0.85278,0.149389,-0.21875,-0.04375,0.5687500000000001
1741711894.4521902,-0.522648,0.854,0.1532929999999999,-0.1925,-0.105,0.5687500000000001
1741711894.4552765,-0.52399,0.852658,0.150121,-0.245,-0.105,0.58625
1741711894.459023,-0.519415,0.8535119999999999,0.1529879999999999,-0.21875,-0.1575,0.49
1741711894.4624534,-0.523502,0.853573,0.149938,-0.18375,-0.04375,0.5950000000000001
1741711894.467761,-0.5222209999999999,0.85034,0.151402,-0.28875,-0.07875,0.46375
1741711894.47088,-0.521489,0.854244,0.153354,-0.28,-0.06125,0.46375
1741711894.474578,-0.524722,0.854366,0.1520729999999999,-0.2625,-2.12625,0.5950000000000001
1741711894.478812,-0.52155,0.852841,0.152195,-0.315,-0.16625,0.5075000000000001
1741711894.4817543,-0.527833,0.8532069999999999,0.150609,-0.32375,-0.07875,0.6300000000000001
1741711894.4848294,-0.524356,0.853024,0.145119,-0.16625,-0.02625,0.56
1741711894.488105,-0.52338,0.8516819999999999,0.149633,-0.28,0.00875,0.48125
1741711894.4913185,-0.5206959999999999,0.853451,0.153049,-0.3675,-0.07,0.6125
1741711894.49416,-0.525759,0.852109,0.1483519999999999,-0.18375,-0.07,0.6125
1741711894.496743,-0.519354,0.852963,0.154879,-0.28,-0.02625,0.6212500000000001
1741711894.4997072,-0.526064,0.853268,0.150731,-0.16625,0.0,0.63875
1741711894.5037746,-0.5210009999999999,0.853085,0.149755,-0.11375,-0.105,0.55125
1741711894.5079534,-0.523563,0.852475,0.150304,-0.245,-0.07,0.5162500000000001
1741711894.5109856,-0.5246,0.852719,0.149938,-0.23625,-0.0525,0.525
1741711894.5143108,-0.522465,0.851499,0.152195,-0.28,-0.06125,0.5687500000000001
1741711894.5174654,-0.5210009999999999,0.853085,0.153842,-0.1225,-0.105,0.5950000000000001
1741711894.5209396,-0.521428,0.8525969999999999,0.1520729999999999,-0.21,-0.09625,0.5775
1741711894.525281,-0.521855,0.85339,0.152134,-0.3675,-0.14875,0.49875
1741711894.5282564,-0.523929,0.850645,0.151585,-0.28,-0.02625,0.58625
1741711894.5313823,-0.523624,0.85095,0.149511,-0.1925,-0.1575,0.5775
1741711894.534439,-0.519354,0.851743,0.150609,-0.1575,-0.14,0.5775
1741711894.5373266,-0.518805,0.85583,0.153842,-0.245,-0.13125,0.46375
1741711894.5418663,-0.526003,0.8550369999999999,0.150914,-0.13125,-0.11375,0.5687500000000001
1741711894.5453875,-0.524966,0.852414,0.151646,-0.27125,-0.1225,0.5687500000000001
1741711894.5500796,-0.5210009999999999,0.854305,0.150731,-0.3325,-0.105,0.6562500000000001
1741711894.5537877,-0.5240509999999999,0.85339,0.152317,-0.28,-0.07875,0.5775
1741711894.5574627,-0.523624,0.853024,0.151341,-0.1925,-0.175,0.63875
1741711894.5609944,-0.5225259999999999,0.852109,0.149084,-0.25375,-0.105,0.60375
1741711894.564636,-0.5246,0.8529019999999999,0.151158,-0.1925,-0.06125,0.5425000000000001
1741711894.5674195,-0.5191709999999999,0.8529019999999999,0.152927,-0.11375,-0.13125,0.37625
1741711894.5720026,-0.521184,0.8510719999999999,0.152195,-0.1925,-0.1575,0.5162500000000001
1741711894.5753305,-0.5234409999999999,0.853085,0.149877,-0.07875,-0.06125,0.525
1741711894.577981,-0.525271,0.854,0.149755,-0.25375,-0.16625,0.58625
1741711894.5807354,-0.524783,0.84973,0.1526829999999999,-0.2625,-0.0875,0.6475000000000001
1741711894.586207,-0.523258,0.854549,0.150731,-0.2975,-0.06125,0.58625
1741711894.5912716,-0.523685,0.851133,0.1529879999999999,-0.34125,-0.07,0.44625
1741711894.595325,-0.522892,0.85278,0.1525,-0.2275,-0.035,0.5162500000000001
1741711894.6012998,-0.52338,0.852109,0.149999,-0.28875,-0.1925,0.56
1741711894.6050007,-0.520574,0.848998,0.152012,-0.20125,-0.07,0.525
1741711894.6083095,-0.523685,0.854305,0.150548,-0.245,-0.18375,0.5775
1741711894.611763,-0.52094,0.850889,0.151829,-0.21875,-0.13125,0.46375
1741711894.6155367,-0.524234,0.853268,0.152561,-0.06125,-0.07,0.56
1741711894.618477,-0.524417,0.851804,0.148779,-0.21,-0.0875,0.6825000000000001
1741711894.621298,-0.52277,0.850828,0.149816,-0.23625,-0.035,0.5775
1741711894.6246214,-0.5200859999999999,0.852109,0.149633,-0.25375,-0.175,0.6212500000000001
1741711894.6298487,-0.521062,0.853878,0.153354,-0.2275,-0.1225,0.56
1741711894.6347144,-0.523807,0.8529019999999999,0.152012,-0.2275,-0.035,0.6737500000000001
1741711894.638557,-0.521672,0.850035,0.153415,-0.105,-0.07875,0.5775
1741711894.6416638,-0.519842,0.851743,0.151463,-0.11375,-0.105,0.665
1741711894.646295,-0.52277,0.8510719999999999,0.151463,-0.2975,-0.04375,0.63875
1741711894.650969,-0.525027,0.852719,0.1523779999999999,-0.21875,0.0525,0.69125
1741711894.6542609,-0.522709,0.854366,0.151341,-0.14875,-0.105,0.56
1741711894.6592228,-0.521977,0.8501569999999999,0.149816,-0.25375,-0.035,0.455
1741711894.662354,-0.525088,0.852353,0.150609,-0.315,-0.1225,0.6300000000000001
1741711894.666746,-0.52216,0.851926,0.15311,-0.14875,-0.0175,0.6212500000000001
1741711894.6709874,-0.522465,0.8553419999999999,0.151768,-0.2275,0.07875,0.5687500000000001
1741711894.6757472,-0.522648,0.850401,0.149755,-0.27125,-0.0525,0.4375
1741711894.6790476,-0.5219159999999999,0.851499,0.15006,-0.1225,-0.0175,0.56
1741711894.68241,-0.524112,0.851804,0.151036,-0.28875,-0.16625,0.5425000000000001
1741711894.6855896,-0.521672,0.852231,0.152927,-0.21875,-0.175,0.6300000000000001
1741711894.6886237,-0.525027,0.848876,0.150243,-0.2275,-0.14,0.6212500000000001
1741711894.691576,-0.525271,0.8507669999999999,0.151768,-0.28,-0.07,0.5337500000000001
1741711894.6954875,-0.520757,0.8525969999999999,0.150365,-0.34125,-0.0175,0.5162500000000001
1741711894.698198,-0.5216109999999999,0.851255,0.149328,-0.42875,-0.13125,0.5075000000000001
1741711894.701378,-0.52216,0.8529019999999999,0.151036,-0.21875,-0.02625,0.7000000000000001
1741711894.7041042,-0.520208,0.850035,0.1523779999999999,-0.18375,-0.02625,0.49875
1741711894.7066023,-0.5231359999999999,0.852353,0.154452,-0.1925,-0.02625,0.6125
1741711894.7095003,-0.522282,0.853695,0.150487,-0.245,-0.07,0.6212500000000001
1741711894.7121823,-0.518988,0.851499,0.1542079999999999,-0.1925,-0.035,0.5687500000000001
1741711894.71533,-0.526613,0.853695,0.151585,-0.20125,-0.1925,0.5687500000000001
1741711894.7198117,-0.52033,0.8507669999999999,0.150304,-0.28875,-0.1225,0.5950000000000001
1741711894.7225654,-0.521794,0.852658,0.15128,-0.3325,-0.21875,0.56
1741711894.7251282,-0.522404,0.8516819999999999,0.147376,-0.315,-0.0875,0.5425000000000001
1741711894.7278848,-0.520269,0.851804,0.153964,-0.315,-0.11375,0.5337500000000001
1741711894.7306626,-0.522099,0.855159,0.151768,-0.2275,-2.1612500000000003,0.56
1741711894.7340422,-0.526796,0.851865,0.149511,-0.16625,-0.09625,0.5775
1741711894.7368867,-0.520147,0.8495469999999999,0.151829,-0.2975,-0.105,0.5162500000000001
1741711894.7394493,-0.523807,0.853695,0.150975,-0.28,-0.175,0.5162500000000001
1741711894.741784,-0.522709,0.853695,0.150914,-0.315,-0.11375,0.6212500000000001
1741711894.744365,-0.527406,0.854366,0.149511,-0.28875,-0.21875,0.58625
1741711894.7473814,-0.519232,0.8522919999999999,0.152927,-0.245,-0.105,0.5425000000000001
1741711894.7502265,-0.521489,0.8532069999999999,0.149633,-0.13125,-0.0175,0.6125
1741711894.753021,-0.522587,0.850706,0.150121,-0.25375,-0.07,0.5162500000000001
1741711894.7557068,-0.523624,0.8532069999999999,0.153232,-0.2625,-0.2275,0.6125
1741711894.7585862,-0.522343,0.8541219999999999,0.1532929999999999,-0.32375,-0.00875,0.55125
1741711894.7621255,-0.521855,0.8532069999999999,0.1520729999999999,-0.14875,-0.07,0.6475000000000001
1741711894.7655663,-0.519598,0.85217,0.150853,-0.1925,-0.16625,0.5425000000000001
1741711894.768526,-0.52277,0.852841,0.147254,-0.30625,-0.07875,0.41125
1741711894.7711504,-0.521855,0.853451,0.152866,-0.28,-0.0875,0.6825000000000001
1741711894.773956,-0.523624,0.854061,0.152866,-0.30625,-0.11375,0.69125
1741711894.7767289,-0.524478,0.857355,0.150182,-0.105,-0.035,0.5425000000000001
1741711894.7793574,-0.523197,0.854854,0.150548,-0.105,-0.00875,0.5337500000000001
1741711894.7818563,-0.523685,0.852475,0.151402,-0.1575,-0.16625,0.6125
1741711894.7845,-0.52094,0.8538169999999999,0.151585,-0.20125,-0.1925,0.6475000000000001
1741711894.78709,-0.528077,0.852963,0.152561,-0.35,-0.13125,0.5950000000000001
1741711894.7894645,-0.523685,0.8541219999999999,0.152317,-0.28,-0.1925,0.525
1741711894.7920566,-0.523502,0.852658,0.14762,-0.27125,-0.0875,0.58625
1741711894.796376,-0.52216,0.853451,0.1489619999999999,-0.21875,-0.1225,0.5075000000000001
1741711894.799395,-0.518927,0.8538169999999999,0.154025,-0.2275,-0.04375,0.55125
1741711894.802022,-0.518195,0.853756,0.150426,-0.20125,-0.13125,0.6212500000000001
1741711894.804793,-0.524173,0.852231,0.15189,-0.2975,-0.04375,0.55125
1741711894.8075373,-0.524295,0.852475,0.149145,-0.23625,-0.21,0.5162500000000001
1741711894.8100002,-0.52521,0.850401,0.148535,-0.18375,-0.11375,0.5775
1741711894.812413,-0.523624,0.850828,0.148474,-0.23625,-0.06125,0.665
1741711894.8167658,-0.523197,0.850279,0.1535979999999999,-0.25375,-0.035,0.5950000000000001
1741711894.819761,-0.52094,0.850096,0.150731,-0.1925,-0.0525,0.5337500000000001
1741711894.8222878,-0.526064,0.853695,0.1480469999999999,-0.23625,-0.04375,0.5337500000000001
1741711894.8249483,-0.524905,0.8516819999999999,0.147925,-0.18375,-0.07,0.5162500000000001
1741711894.8275511,-0.525637,0.851438,0.1526829999999999,-0.1225,-0.16625,0.49
1741711894.8301158,-0.518683,0.848571,0.155001,-0.14875,-0.11375,0.5775
1741711894.8326735,-0.520513,0.851011,0.149694,-0.21,-0.16625,0.6825000000000001
1741711894.83568,-0.523014,0.85278,0.154025,-0.1925,-0.07,0.4725
1741711894.838823,-0.5228309999999999,0.853695,0.154574,-0.2625,-0.20125,0.49
1741711894.841922,-0.52216,0.854854,0.1535979999999999,-0.28875,-0.1575,0.41125
1741711894.8445406,-0.5216109999999999,0.8553419999999999,0.158661,-0.315,-0.07,0.665
1741711894.847318,-0.5203909999999999,0.8513769999999999,0.152927,-0.28,-0.11375,0.6300000000000001
1741711894.8497844,-0.521733,0.853146,0.145973,-0.23625,-0.07,0.525
1741711894.8524165,-0.528565,0.854488,0.150914,-0.28,0.07875,0.6475000000000001
1741711894.855116,-0.524905,0.855281,0.14884,-0.23625,-0.175,0.5687500000000001
1741711894.8590798,-0.522648,0.854183,0.154452,-0.1225,-0.1225,0.7525000000000001
1741711894.862055,-0.5240509999999999,0.8529019999999999,0.151036,-0.32375,-0.21875,0.6475000000000001
1741711894.864701,-0.523868,0.8519869999999999,0.150731,-0.2275,0.0175,0.5687500000000001
1741711894.8672166,-0.52094,0.849059,0.151097,-0.1925,-0.07,0.60375
1741711894.869779,-0.523197,0.852048,0.149328,-0.315,-0.21,0.60375
1741711894.8722034,-0.52155,0.853329,0.149816,-0.2625,-0.035,0.665
1741711894.874585,-0.528016,0.852963,0.150304,-0.2625,-0.13125,0.455
1741711894.8796716,-0.524478,0.851316,0.14823,-0.1925,-0.0875,0.5687500000000001
1741711894.8826926,-0.5225259999999999,0.848693,0.150243,-0.18375,-0.07875,0.49875
1741711894.8853693,-0.520025,0.85278,0.151829,-0.18375,-0.035,0.5337500000000001
1741711894.8880312,-0.52033,0.854671,0.150731,-0.21875,-0.1925,0.7262500000000001
1741711894.890605,-0.522038,0.851926,0.149511,-0.32375,-0.00875,0.525
1741711894.8927777,-0.526003,0.85339,0.146461,-0.2975,-0.11375,0.5337500000000001
1741711894.894941,-0.525698,0.851621,0.147071,-0.21875,-0.14875,0.56
1741711894.8975365,-0.522709,0.854671,0.150487,-0.21,-0.04375,0.5162500000000001
1741711894.9009864,-0.524234,0.85461,0.152195,-0.21,-0.07875,0.5162500000000001
1741711894.9033723,-0.5240509999999999,0.851438,0.148413,-0.27125,-0.1225,0.55125
1741711894.9057014,-0.520635,0.850828,0.150182,-0.175,-0.11375,0.4375
1741711894.9080856,-0.521733,0.853268,0.1520729999999999,-0.2275,-0.0525,0.5337500000000001
1741711894.9104548,-0.52643,0.8541219999999999,0.152866,-0.21,-0.0525,0.5425000000000001
1741711894.9126165,-0.521367,0.849303,0.155916,-0.02625,-0.1575,0.60375
1741711894.9147823,-0.524173,0.8498519999999999,0.14884,-0.28,-0.1575,0.6300000000000001
1741711894.917327,-0.526857,0.8532069999999999,0.150243,-0.25375,-0.1575,0.5687500000000001
1741711894.919792,-0.5225259999999999,0.85522,0.150487,-0.11375,-0.09625,0.49
1741711894.922434,-0.5216109999999999,0.854488,0.155001,-0.1925,-0.14,0.58625
1741711894.9247072,-0.5231359999999999,0.853695,0.152866,-0.23625,-0.13125,0.6825000000000001
1741711894.9270108,-0.520757,0.852048,0.153232,-0.21875,-0.11375,0.46375
1741711894.929282,-0.52521,0.852414,0.152927,1.93375,-0.13125,0.455
1741711894.931487,-0.520025,0.85156,0.152134,-0.14,-0.105,0.6475000000000001
1741711894.9336748,-0.526308,0.85278,0.15311,-0.23625,0.0,0.4725
1741711894.9359765,-0.5219159999999999,0.851316,0.149633,-0.315,-0.16625,0.4725
1741711894.9387066,-0.524783,0.852719,0.15189,-0.14875,-0.07875,0.58625
1741711894.9418888,-0.52277,0.852231,0.146705,-0.13125,-0.14,0.60375
1741711894.944272,-0.525576,0.8510719999999999,0.147803,-0.30625,-0.2275,0.55125
1741711894.9465582,-0.518683,0.852048,0.14945,-0.18375,-0.105,0.5775
1741711894.948821,-0.523624,0.850523,0.146949,-0.2625,-0.105,0.5425000000000001
1741711894.9511344,-0.526247,0.851804,0.150548,-0.28,-0.175,0.48125
1741711894.953478,-0.52155,0.84973,0.146766,-0.20125,-0.1925,0.42875
1741711894.9562094,-0.524966,0.855098,0.153232,-0.27125,-0.1225,0.55125
1741711894.9589236,-0.520147,0.853268,0.1486569999999999,-0.2625,-0.09625,0.5425000000000001
1741711894.9622748,-0.521794,0.8529019999999999,0.151463,-0.28,-0.11375,0.4375
1741711894.9653008,-0.524234,0.850889,0.1474369999999999,-0.245,-0.105,0.56
1741711894.967683,-0.523868,0.854976,0.152622,-0.25375,-0.035,0.49875
1741711894.9700334,-0.525027,0.856196,0.149633,-0.21,-0.21875,0.7000000000000001
1741711894.972366,-0.5213059999999999,0.853085,0.157319,-0.21875,-0.0875,0.5950000000000001
1741711894.9748158,-0.519842,0.851804,0.152317,-0.0875,-0.02625,0.48125
1741711894.9770153,-0.5225259999999999,0.8544269999999999,0.1526829999999999,-0.16625,-0.07875,0.525
1741711894.979407,-0.5188659999999999,0.8498519999999999,0.151341,-0.2975,-0.14875,0.42
1741711894.9827957,-0.522099,0.8510719999999999,0.149694,-0.37625,-0.105,0.525
1741711894.9855056,-0.523319,0.853634,0.149084,-0.16625,0.04375,0.5775
1741711894.987824,-0.524661,0.8529019999999999,0.147498,-0.175,-0.13125,0.56
1741711894.9903247,-0.523929,0.852536,0.149023,-0.21,-0.13125,0.5425000000000001
1741711894.9925926,-0.525759,0.852048,0.148291,-0.42875,0.00875,0.60375
1741711894.9948018,-0.521855,0.853573,0.148291,-0.23625,-0.06125,0.6825000000000001
1741711894.9969485,-0.5185,0.850523,0.157014,-0.1575,-0.04375,0.42
1741711894.999509,-0.518988,0.850096,0.1523779999999999,-0.25375,-0.105,0.42875
1741711895.0031824,-0.52399,0.850523,0.151341,-0.25375,0.04375,0.525
1741711895.0059142,-0.522953,0.853695,0.153171,-0.4025,-0.20125,0.6737500000000001
1741711895.0082123,-0.523014,0.852475,0.151463,-0.25375,-0.16625,0.49
1741711895.0104926,-0.524905,0.855159,0.154696,-0.23625,-0.00875,0.5687500000000001
1741711895.0127485,-0.526735,0.853939,0.154452,-0.30625,-0.13125,0.6300000000000001
1741711895.0149703,-0.525454,0.850889,0.149389,-0.20125,-0.105,0.6475000000000001
1741711895.0173068,-0.5225259999999999,0.853695,0.152439,-0.385,-0.07875,0.5425000000000001
1741711895.0195134,-0.523502,0.851743,0.152622,-0.18375,-0.04375,0.525
1741711895.0228891,-0.523685,0.85461,0.151646,-0.27125,-0.07,0.55125
1741711895.0256066,-0.524173,0.852719,0.150182,-0.13125,-0.07,0.56
1741711895.0279138,-0.518988,0.855098,0.155001,-0.245,-0.21875,0.525
1741711895.0304146,-0.523197,0.857599,0.151646,-0.20125,-0.13125,0.56
1741711895.0327313,-0.519903,0.8571719999999999,0.157197,-0.175,-0.105,0.5162500000000001
1741711895.034994,-0.523563,0.853695,0.150304,-0.27125,-0.0525,0.55125
1741711895.0371585,-0.5185609999999999,0.851804,0.155428,-0.27125,-0.0875,0.6737500000000001
1741711895.03932,-0.518683,0.851865,0.152134,-0.245,-0.02625,0.60375
1741711895.0420763,-0.517585,0.850096,0.149816,-0.28,-0.00875,0.6475000000000001
1741711895.045339,-0.525698,0.8529019999999999,0.1525,-0.315,-0.105,0.665
1741711895.0478125,-0.52338,0.853268,0.154452,-0.2975,-0.16625,0.60375
1741711895.0501578,-0.521794,0.851255,0.15128,-0.20125,-0.07875,0.56
1741711895.0525217,-0.518012,0.851926,0.156038,-0.2275,-0.1225,0.5337500000000001
1741711895.0548406,-0.520452,0.852963,0.153354,-0.16625,-0.09625,0.49875
1741711895.0570438,-0.522404,0.851011,0.151158,-0.315,-0.00875,0.5425000000000001
1741711895.0592468,-0.528321,0.8507669999999999,0.146339,-0.35,-0.0525,0.5075000000000001
1741711895.0618117,-0.517463,0.85095,0.150792,-0.32375,-0.0875,0.5337500000000001
1741711895.0643692,-0.521367,0.8529019999999999,0.154025,-0.18375,-0.04375,0.55125
1741711895.067431,-0.525637,0.858575,0.152439,-0.2275,-0.175,0.69125
1741711895.0698135,-0.520635,0.856135,0.151707,-0.14875,-0.14,0.5075000000000001
1741711895.0721383,-0.5194759999999999,0.853451,0.1525,-0.28,-0.04375,0.5337500000000001
1741711895.0747385,-0.5231359999999999,0.851804,0.148779,-0.315,-0.0875,0.55125
1741711895.077142,-0.518439,0.8522919999999999,0.153171,-0.20125,-0.105,0.5075000000000001
1741711895.0793564,-0.51911,0.851743,0.153354,-0.34125,-0.1925,0.49875
1741711895.08225,-0.522587,0.8538169999999999,0.149389,-0.25375,-0.11375,0.5687500000000001
1741711895.084937,-0.530273,0.854976,0.149328,-0.175,-0.1225,0.455
1741711895.0879357,-0.521977,0.853329,0.149633,-0.175,-0.11375,0.56
1741711895.0903273,-0.524295,0.851865,0.151036,-0.30625,-0.07,0.6300000000000001
1741711895.092669,-0.520452,0.853878,0.150731,-0.21875,-0.06125,0.56
1741711895.0950034,-0.52582,0.852353,0.151341,-0.23625,-0.07,0.4725
1741711895.0974326,-0.520452,0.8541219999999999,0.149145,-0.37625,-0.27125,0.5775
1741711895.099623,-0.52582,0.849486,0.147254,-0.30625,-0.035,0.6212500000000001
1741711895.1019628,-0.52094,0.8541219999999999,0.151707,-0.3325,-0.00875,0.6562500000000001
1741711895.1054792,-0.523075,0.851926,0.152317,-0.2275,-0.07,0.5950000000000001
1741711895.108689,-0.523868,0.853756,0.150182,-0.18375,-0.09625,0.6125
1741711895.1110406,-0.5213059999999999,0.8501569999999999,0.155367,-0.27125,-0.245,0.56
1741711895.1133778,-0.526064,0.852231,0.146156,-0.27125,-0.1225,0.5337500000000001
1741711895.115718,-0.5210009999999999,0.85217,0.153354,-0.35875,-0.07875,0.6300000000000001
1741711895.1179025,-0.521672,0.8516819999999999,0.150304,-0.175,-0.0875,0.5337500000000001
1741711895.1200285,-0.514352,0.8519869999999999,0.149511,-0.245,-0.0875,0.525
1741711895.122659,-0.522465,0.8562569999999999,0.151951,-0.315,-0.0525,0.55125
1741711895.1261673,-0.525149,0.852658,0.150731,-0.20125,-0.07875,0.55125
1741711895.1289582,-0.522099,0.8556469999999999,0.150243,-0.14875,-0.04375,0.55125
1741711895.1313002,-0.519659,0.850523,0.151402,-0.27125,-0.0875,0.6562500000000001
1741711895.1339228,-0.5231359999999999,0.851499,0.147193,-0.21,-0.00875,0.6125
1741711895.1362703,-0.518317,0.85217,0.155733,-0.30625,0.00875,0.58625
1741711895.1385086,-0.525271,0.849913,0.148291,-0.2625,-0.13125,0.5687500000000001
1741711895.1406915,-0.525637,0.8547319999999999,0.156404,-0.30625,-0.13125,0.5687500000000001
1741711895.1430538,-0.520208,0.85583,0.157319,-0.21,-0.09625,0.5950000000000001
1741711895.146395,-0.519415,0.853329,0.149328,-0.11375,-0.07,0.49
1741711895.149063,-0.521855,0.850645,0.151829,-0.14875,-0.04375,0.56
1741711895.151413,-0.522404,0.8513769999999999,0.146583,-0.21,-0.04375,0.5775
1741711895.1537926,-0.519598,0.852109,0.152805,-0.2275,-0.1575,0.5337500000000001
1741711895.1561368,-0.5231359999999999,0.8525969999999999,0.150487,-0.35,-0.02625,0.56
1741711895.1583903,-0.51911,0.854915,0.159332,-0.0525,2.1612500000000003,0.69125
1741711895.1605835,-0.523685,0.852841,0.155672,-0.175,-0.1925,0.60375
1741711895.1630316,-0.519659,0.853695,0.151158,-0.14875,-0.0875,0.56
1741711895.166811,-0.521367,0.850523,0.150487,-0.28875,-0.11375,0.49875
1741711895.1695576,-0.524905,0.8525969999999999,0.150487,-0.35,-0.07,0.7262500000000001
1741711895.1719632,-0.5176459999999999,0.851011,0.157136,-0.28875,-0.13125,0.6300000000000001
1741711895.1743064,-0.522709,0.852048,0.146583,-0.175,-0.04375,0.49
1741711895.1769216,-0.522343,0.850035,0.150792,-0.20125,-0.0875,0.5162500000000001
1741711895.1791265,-0.5240509999999999,0.852536,0.15128,-0.245,-0.175,0.56
1741711895.181511,-0.516304,0.851438,0.158783,-0.35,-0.04375,0.525
1741711895.1836946,-0.52033,0.851621,0.152622,-0.34125,-0.105,0.58625
1741711895.187365,-0.520269,0.852536,0.150975,-0.1925,-0.04375,0.49875
1741711895.190454,-0.52155,0.851865,0.150304,-0.14,-0.105,0.6300000000000001
1741711895.192737,-0.520208,0.853024,0.151951,-0.245,-0.13125,0.63875
1741711895.1950188,-0.522465,0.851011,0.150121,-0.28,-0.04375,0.5337500000000001
1741711895.1975052,-0.519659,0.854,0.155611,-0.2975,-0.14875,0.6125
1741711895.1997654,-0.5246,0.854183,0.152012,-0.14,-0.14,0.49
1741711895.2019782,-0.525515,0.851621,0.150548,-0.20125,0.035,0.6212500000000001
1741711895.204148,-0.516365,0.854183,0.1586,-0.245,-0.25375,0.49875
1741711895.2077558,-0.520879,0.852048,0.149023,-0.30625,0.0175,0.6825000000000001
1741711895.2104454,-0.519964,0.851499,0.150243,-0.23625,-0.07,0.5337500000000001
1741711895.212794,-0.520208,0.8486319999999999,0.14762,-0.23625,-0.105,0.6212500000000001
1741711895.2151375,-0.519842,0.854061,0.150548,-0.175,-0.0875,0.5337500000000001
1741711895.217478,-0.527528,0.853268,0.151463,-0.18375,-0.04375,0.5337500000000001
1741711895.219885,-0.5237459999999999,0.854244,0.150426,-0.27125,-0.00875,0.5950000000000001
1741711895.2221136,-0.5240509999999999,0.85644,0.1526829999999999,-0.3325,-0.14875,0.6125
1741711895.2242851,-0.525454,0.851499,0.144692,-0.27125,-0.11375,0.665
1741711895.2268162,-0.52277,0.851133,0.149999,-0.2625,0.07,0.7350000000000001
1741711895.229425,-0.52033,0.854061,0.152622,-0.315,-0.07875,0.6300000000000001
1741711895.2320893,-0.5219159999999999,0.852536,0.150975,-0.1575,-0.14875,0.56
1741711895.2344449,-0.527772,0.85278,0.150975,-0.14,-0.07875,0.6125
1741711895.2367814,-0.521977,0.851011,0.146949,-0.32375,-0.0525,0.49875
1741711895.2391338,-0.524783,0.855098,0.154574,-0.175,-0.0875,0.46375
1741711895.2413166,-0.524112,0.852658,0.148474,-0.28,-0.105,0.55125
1741711895.2434762,-0.526735,0.852414,0.151158,-0.2975,-0.1225,0.5687500000000001
1741711895.2460518,-0.523624,0.853939,0.150121,-0.28875,-0.00875,0.56
1741711895.249107,-0.522099,0.85156,0.151158,-0.21875,-0.02625,0.56
1741711895.252161,-0.524295,0.853085,0.149755,-0.30625,-0.14875,0.5687500000000001
1741711895.2545073,-0.523929,0.854488,0.151341,-0.18375,-0.09625,0.5687500000000001
1741711895.2568123,-0.520818,0.854854,0.154391,-0.27125,-0.0525,0.6125
1741711895.2591558,-0.52155,0.853451,0.152622,-0.20125,0.04375,0.60375
1741711895.2614095,-0.526857,0.852048,0.150121,-0.25375,-0.06125,0.5162500000000001
1741711895.2636344,-0.524173,0.849791,0.149694,-0.16625,-0.2275,0.6212500000000001
1741711895.265801,-0.518622,0.854976,0.152927,-0.1925,-0.07875,0.58625
1741711895.2684674,-0.521489,0.852841,0.149938,-0.18375,-0.2275,0.5162500000000001
1741711895.2712612,-0.522892,0.851743,0.150182,-0.2625,-0.09625,0.63875
1741711895.2738233,-0.52399,0.8525969999999999,0.151768,-0.07,-0.07,0.37625
1741711895.2760258,-0.525637,0.854671,0.1523779999999999,-0.21875,-0.0875,0.7000000000000001
1741711895.2782571,-0.52277,0.8519869999999999,0.148779,-0.14,-0.0875,0.44625
1741711895.2806537,-0.526308,0.851926,0.147498,-0.21875,-0.16625,0.56
1741711895.283393,-0.522404,0.854976,0.153537,-0.25375,-0.07875,0.46375
1741711895.285781,-0.524295,0.8522919999999999,0.14945,-0.32375,-0.0525,0.5775
1741711895.2885396,-0.519842,0.851133,0.15006,-0.27125,-0.105,0.5337500000000001
1741711895.2909076,-0.518012,0.851133,0.15494,-0.4025,-0.13125,0.56
1741711895.2932394,-0.521794,0.853024,0.15372,-0.28,-0.035,0.5950000000000001
1741711895.2955728,-0.522465,0.8556469999999999,0.154086,-0.2975,-0.0875,0.5950000000000001
1741711895.2978635,-0.518073,0.851743,0.156587,-0.21,-0.0525,0.49
1741711895.3000658,-0.52399,0.855098,0.151341,-0.1925,-0.14,0.6300000000000001
1741711895.302251,-0.52948,0.851743,0.149328,-0.0875,-0.07875,0.6125
1741711895.304768,-0.5222209999999999,0.851743,0.155672,-0.175,-0.1925,0.58625
1741711895.3077133,-0.523807,0.853695,0.150365,-0.25375,-0.23625,0.5950000000000001
1741711895.3103044,-0.522465,0.8535119999999999,0.149755,-0.2275,-0.105,0.63875
1741711895.3127365,-0.525698,0.8516819999999999,0.155184,-0.21875,-0.1575,0.46375
1741711895.3150008,-0.519537,0.851316,0.1483519999999999,-0.1925,-0.13125,0.6562500000000001
1741711895.3172417,-0.5191709999999999,0.85156,0.152256,-0.32375,-0.04375,0.7350000000000001
1741711895.3194196,-0.5213059999999999,0.8522919999999999,0.154757,-0.18375,-0.0875,0.5950000000000001
1741711895.3215945,-0.523868,0.852048,0.151036,-0.18375,-0.14875,0.6562500000000001
1741711895.3239691,-0.524112,0.854061,0.149755,-0.32375,0.0175,0.63875
1741711895.3273468,-0.522099,0.85278,0.149145,-0.11375,-0.14875,0.55125
1741711895.330083,-0.5240509999999999,0.8519869999999999,0.152134,-0.23625,-0.11375,0.60375
1741711895.332412,-0.525515,0.8556469999999999,0.150182,-0.3325,-0.07875,0.6562500000000001
1741711895.334761,-0.519903,0.854915,0.152561,-0.2975,-0.07875,0.46375
1741711895.3374295,-0.519964,0.854549,0.151097,-0.1225,-0.07875,0.5775
1741711895.339961,-0.51911,0.85461,0.151036,-0.2275,0.0175,0.48125
1741711895.3424292,-0.521245,0.8532069999999999,0.150792,-0.34125,-0.105,0.5775
1741711895.344955,-0.5203909999999999,0.85034,0.150548,-0.21,-0.1575,0.665
1741711895.3479016,-0.524295,0.851865,0.153049,-0.20125,-0.13125,0.69125
1741711895.3506515,-0.526186,0.854366,0.153781,-0.14875,-0.1575,0.7087500000000001
1741711895.3529809,-0.527101,0.851499,0.145607,-0.21,-0.2275,0.60375
1741711895.35531,-0.522343,0.853634,0.15128,-0.1925,-0.0175,0.5162500000000001
1741711895.3576643,-0.524844,0.853756,0.155794,-0.1575,-0.06125,0.6562500000000001
1741711895.3600712,-0.525515,0.853878,0.146339,-0.245,-0.09625,0.49875
1741711895.3622904,-0.519537,0.852048,0.1525,-0.175,-0.14875,0.56
1741711895.3645108,-0.524295,0.852719,0.153232,-0.315,-0.18375,0.5162500000000001
1741711895.3678153,-0.522465,0.854305,0.153659,-0.14875,-0.04375,0.4375
1741711895.3705175,-0.525881,0.8535119999999999,0.1520729999999999,-0.18375,-0.0875,0.525
1741711895.3728662,-0.522404,0.852536,0.152317,-0.175,0.0,0.5775
1741711895.3753672,-0.518195,0.854488,0.152317,-0.18375,-0.04375,0.5075000000000001
1741711895.3780415,-0.52033,0.852353,0.149206,-0.21875,-0.0525,0.5950000000000001
1741711895.3805597,-0.524905,0.849059,0.146949,-0.2275,-0.20125,0.6475000000000001
1741711895.3828232,-0.524905,0.85278,0.15189,-0.23625,-0.105,0.55125
1741711895.3850048,-0.524234,0.855464,0.152439,-0.20125,-0.105,0.6737500000000001
1741711895.389011,-0.523502,0.854366,0.152256,-0.3325,-0.07,0.49
1741711895.3920803,-0.520208,0.854183,0.151097,-0.2275,-0.035,0.46375
1741711895.394478,-0.51728,0.852109,0.148474,-0.1225,-0.07,0.6737500000000001
1741711895.3968515,-0.5219159999999999,0.853268,0.149389,-0.35,-0.04375,0.6737500000000001
1741711895.3991988,-0.526125,0.849425,0.148169,-0.315,-0.13125,0.525
1741711895.401707,-0.5210009999999999,0.85339,0.15372,-0.2625,-0.105,0.7000000000000001
1741711895.4042222,-0.523563,0.852841,0.15006,-0.13125,-0.00875,0.5775
1741711895.4065928,-0.52643,0.85461,0.149389,-0.14,-0.16625,0.56
1741711895.4097376,-0.525759,0.852963,0.14945,-0.23625,-0.14,0.5775
1741711895.4127784,-0.523868,0.851194,0.1525,-0.245,-0.18375,0.5687500000000001
1741711895.4151337,-0.521733,0.850889,0.150914,-0.1225,-0.07875,0.6212500000000001
1741711895.4176946,-0.5222209999999999,0.853695,0.15311,-0.14875,-0.0875,0.665
1741711895.4200406,-0.526064,0.851926,0.151402,-0.1575,-0.07875,0.56
1741711895.4222753,-0.522709,0.854793,0.153476,-0.28,-0.21,0.5950000000000001
1741711895.424464,-0.522038,0.854061,0.148718,-0.1925,-0.0875,0.5162500000000001
1741711895.426806,-0.523197,0.8504619999999999,0.150243,-0.23625,-0.04375,0.525
1741711895.430065,-0.521123,0.8532069999999999,0.150182,-0.245,-0.14875,0.55125
1741711895.432706,-0.522282,0.851743,0.153415,-0.21,-0.1575,0.7000000000000001
1741711895.43494,-0.523624,0.85156,0.149084,-0.21875,-0.0175,0.6125
1741711895.4370844,-0.519659,0.853573,0.152134,-0.23625,-0.105,0.525
1741711895.4392428,-0.519049,0.8556469999999999,0.155428,-0.30625,-0.07,0.5075000000000001
1741711895.4416327,-0.521428,0.854671,0.152805,-0.27125,0.0525,0.5775
1741711895.4439907,-0.520818,0.854366,0.155306,-0.2625,-0.06125,0.6125
1741711895.4462557,-0.52155,0.8516819999999999,0.149999,-0.27125,-0.1225,0.56
1741711895.4488783,-0.525637,0.850584,0.145546,-0.18375,-0.04375,0.49875
1741711895.4513085,-0.524356,0.852353,0.145424,-0.315,-0.02625,0.49
1741711895.453642,-0.525454,0.852048,0.150243,-0.2275,-0.04375,0.6212500000000001
1741711895.4576838,-0.52338,0.853024,0.145119,-0.21,-0.0525,0.5162500000000001
1741711895.460091,-0.52338,0.8529019999999999,0.151951,-0.21,-0.07875,0.7087500000000001
1741711895.4624965,-0.524173,0.853146,0.151341,-0.21875,-0.14,0.6300000000000001
1741711895.4646575,-0.524966,0.85339,0.151951,-0.245,-0.0175,0.5950000000000001
1741711895.4671736,-0.528992,0.8529019999999999,0.149206,-0.245,-0.00875,0.58625
1741711895.4698603,-0.52033,0.852658,0.152866,-0.21875,0.00875,0.5687500000000001
1741711895.4724815,-0.522099,0.84973,0.158112,-0.16625,-0.04375,0.525
1741711895.4747934,-0.523807,0.8510719999999999,0.150853,-0.14,-0.1225,0.5950000000000001
1741711895.4770875,-0.5167309999999999,0.853878,0.15555,-0.30625,-0.00875,0.5950000000000001
1741711895.47937,-0.5246,0.851743,0.146461,-0.25375,0.035,0.55125
1741711895.48158,-0.5246,0.851804,0.147864,-0.2275,-0.11375,0.58625
1741711895.4837766,-0.528748,0.852231,0.1525,-0.245,-0.035,0.49875
1741711895.4867969,-0.519842,0.854305,0.149084,-0.245,-0.18375,0.49
1741711895.4900825,-0.523807,0.8529019999999999,0.151402,-0.245,0.0,0.5075000000000001
1741711895.4930613,-0.526308,0.854976,0.153171,-0.27125,0.0,0.55125
1741711895.4954495,-0.51972,0.851438,0.152622,-0.37625,-0.105,0.5950000000000001
1741711895.4978166,-0.526247,0.851926,0.151097,-0.21,-0.0175,0.5950000000000001
1741711895.5001674,-0.520757,0.853146,0.153476,-0.18375,-0.16625,0.5950000000000001
1741711895.5024211,-0.5213059999999999,0.8541219999999999,0.154879,-0.35,-0.11375,0.5337500000000001
1741711895.5046036,-0.521062,0.855098,0.153781,-0.21,-0.1925,0.49
1741711895.5073333,-0.5246,0.852414,0.149694,-0.315,-0.07875,0.63875
1741711895.5109706,-0.521062,0.854854,0.149023,-0.14,-0.14,0.63875
1741711895.5142038,-0.524905,0.8547319999999999,0.149511,-0.1225,-0.175,0.7175
1741711895.516792,-0.5228309999999999,0.853146,0.1428009999999999,-0.11375,-0.06125,0.5950000000000001
1741711895.5197127,-0.520818,0.851499,0.152927,-0.14875,0.0175,0.5950000000000001
1741711895.522163,-0.522953,0.852109,0.15494,-0.28,-0.0875,0.5950000000000001
1741711895.524835,-0.522282,0.851621,0.150487,-0.21,-0.06125,0.46375
1741711895.5274556,-0.526857,0.853756,0.152256,-0.2275,-0.00875,0.665
1741711895.530952,-0.524539,0.8550369999999999,0.15189,-0.34125,-0.06125,0.63875
1741711895.5344114,-0.523563,0.852536,0.1526829999999999,-0.25375,-0.04375,0.46375
1741711895.5369737,-0.5234409999999999,0.851316,0.149023,-0.35,-0.04375,0.5425000000000001
1741711895.5398953,-0.524722,0.851865,0.15189,-0.20125,-0.0525,0.6737500000000001
1741711895.542356,-0.523624,0.851316,0.151158,-0.1925,-0.105,0.525
1741711895.5450206,-0.5219159999999999,0.853085,0.151707,-0.2275,-0.035,0.5687500000000001
1741711895.547652,-0.521489,0.854976,0.159332,-0.2625,-0.13125,0.5162500000000001
1741711895.55129,-0.523624,0.85339,0.1520729999999999,-0.1225,-0.04375,0.48125
1741711895.5547988,-0.520208,0.853573,0.1520729999999999,-0.27125,-0.14875,0.5950000000000001
1741711895.5573394,-0.525942,0.8538169999999999,0.150792,-0.2975,-0.06125,0.6125
1741711895.560263,-0.522099,0.85156,0.151768,-0.245,0.035,0.5775
1741711895.5627356,-0.523563,0.852353,0.149694,-0.21,-0.2625,0.455
1741711895.5654256,-0.525576,0.853451,0.150853,-0.27125,-0.09625,0.5687500000000001
1741711895.5680263,-0.5246,0.8525969999999999,0.146705,-0.14875,-0.09625,0.6737500000000001
1741711895.5717762,-0.521733,0.852841,0.150975,-0.21,-0.09625,0.5075000000000001
1741711895.5751195,-0.519659,0.852109,0.151951,-0.25375,0.04375,0.5337500000000001
1741711895.5780284,-0.527589,0.851194,0.150243,-0.23625,-0.00875,0.4725
1741711895.5806196,-0.524966,0.853268,0.1539029999999999,-0.35,-0.035,0.6737500000000001
1741711895.5833693,-0.525515,0.8535119999999999,0.150609,-0.5162500000000001,-0.21875,0.665
1741711895.5857017,-0.52338,0.855403,0.156648,-0.245,-0.14,0.6125
1741711895.588331,-0.523563,0.855525,0.150487,-0.1575,-0.16625,0.46375
1741711895.5921133,-0.5194759999999999,0.850218,0.149328,-0.315,-0.04375,0.5075000000000001
1741711895.595544,-0.522343,0.850828,0.151646,-0.41125,-0.11375,0.49
1741711895.5979593,-0.52277,0.85522,0.150487,-0.27125,-0.14,0.6475000000000001
1741711895.600731,-0.5237459999999999,0.853573,0.150426,-0.21875,-0.04375,0.6125
1741711895.6031382,-0.521184,0.854183,0.153537,-0.27125,-0.07875,0.5775
1741711895.60566,-0.5222209999999999,0.853146,0.157197,-0.23625,-0.00875,0.58625
1741711895.6080425,-0.5240509999999999,0.851865,0.148291,-0.21875,-0.04375,0.5425000000000001
1741711895.6120484,-0.520574,0.851499,0.15189,-0.315,-0.02625,0.6212500000000001
1741711895.6153126,-0.522648,0.853329,0.156038,-0.245,-0.0875,0.6300000000000001
1741711895.6178992,-0.5231359999999999,0.852719,0.151585,-0.16625,-0.0175,0.6212500000000001
1741711895.6208036,-0.52216,0.852109,0.15128,-0.14,0.0,0.665
1741711895.6233373,-0.5231359999999999,0.8532069999999999,0.153781,-0.245,-0.06125,0.49875
1741711895.626042,-0.5222209999999999,0.855281,0.1525,-0.23625,-0.1575,0.49
1741711895.628417,-0.524112,0.853573,0.150426,-0.23625,-0.18375,0.6300000000000001
1741711895.6324146,-0.524356,0.853085,0.151036,-0.3325,-0.07,0.5950000000000001
1741711895.63604,-0.521977,0.853451,0.150365,-0.2275,-0.1225,0.6562500000000001
1741711895.6386416,-0.524417,0.851316,0.151036,-0.2275,-0.14,0.49
1741711895.641526,-0.5219159999999999,0.8547319999999999,0.140544,-0.25375,-0.21875,0.60375
1741711895.6440265,-0.524722,0.853634,0.146278,-0.11375,-0.06125,0.60375
1741711895.646754,-0.524783,0.854183,0.14945,-0.35,-0.07,0.5425000000000001
1741711895.6492898,-0.5246,0.85156,0.149755,-0.32375,-0.04375,0.49
1741711895.6533806,-0.524722,0.8516819999999999,0.1526829999999999,-0.28875,-0.00875,0.49875
1741711895.6569085,-0.5234409999999999,0.85522,0.151402,-0.2275,-0.16625,0.6212500000000001
1741711895.659264,-0.525576,0.854,0.153232,-0.37625,-0.14,0.5775
1741711895.6620822,-0.5225259999999999,0.8507669999999999,0.154635,-0.27125,-0.04375,0.5687500000000001
1741711895.6643777,-0.523807,0.850889,0.149206,-0.21875,-0.09625,0.55125
1741711895.6671095,-0.523624,0.852109,0.149755,-0.32375,0.0175,0.6562500000000001
1741711895.6696815,-0.5234409999999999,0.853756,0.154391,-0.2275,-0.04375,0.6212500000000001
1741711895.6733625,-0.522892,0.850889,0.154574,-0.18375,-0.09625,0.5687500000000001
1741711895.676788,-0.52216,0.854244,0.151768,-0.18375,-0.06125,0.56
1741711895.6791627,-0.52338,0.853146,0.152012,-0.245,-0.07875,0.5775
1741711895.682093,-0.523685,0.852658,0.153049,-0.245,-0.14875,0.5425000000000001
1741711895.6845694,-0.524539,0.85156,0.150487,-0.2275,-0.14875,0.5950000000000001
1741711895.6872916,-0.5231359999999999,0.856135,0.154025,-0.105,-0.16625,0.525
1741711895.6897612,-0.522709,0.8519869999999999,0.15067,-0.315,-0.0175,0.56
1741711895.6932662,-0.520452,0.8513769999999999,0.150975,-0.25375,-0.175,0.49
1741711895.6966994,-0.5231359999999999,0.849669,0.148474,-0.14875,-0.1225,0.69125
1741711895.6990912,-0.525332,0.850035,0.147986,-0.28,-0.1925,0.525
1741711895.7020166,-0.520879,0.852536,0.152927,-0.21,-0.13125,0.6212500000000001
1741711895.7045133,-0.520269,0.856318,0.152195,-0.21,-0.105,0.5775
1741711895.7072458,-0.5179509999999999,0.851255,0.1492669999999999,-0.21,-0.13125,0.5775
1741711895.709847,-0.524661,0.8532069999999999,0.151036,-0.1925,-0.04375,0.63875
1741711895.713616,-0.521184,0.852414,0.150792,-0.28875,-0.06125,0.5162500000000001
1741711895.7169545,-0.5240509999999999,0.855159,0.150975,-0.21875,-0.07875,0.6212500000000001
1741711895.719874,-0.523868,0.852048,0.149084,-0.23625,-0.04375,0.58625
1741711895.7224476,-0.524783,0.85095,0.151829,-0.16625,-0.07875,0.44625
1741711895.7251866,-0.5222209999999999,0.8477169999999999,0.149389,-0.28875,-0.02625,0.5075000000000001
1741711895.7275934,-0.52277,0.851194,0.151402,-0.3675,-0.105,0.58625
1741711895.7303104,-0.525027,0.854305,0.1489619999999999,-0.315,-0.105,0.5950000000000001
1741711895.7341285,-0.523868,0.852536,0.152439,-0.14875,-0.0525,0.46375
1741711895.7375057,-0.524478,0.854061,0.151402,-0.11375,-0.00875,0.6125
1741711895.7404275,-0.524417,0.85156,0.149877,-0.23625,-0.04375,0.5950000000000001
1741711895.7430215,-0.52338,0.849974,0.146888,-0.21,-0.00875,0.49875
1741711895.7457564,-0.526247,0.8529019999999999,0.152134,-0.20125,-0.0175,0.665
1741711895.748165,-0.5200859999999999,0.852719,0.151707,-0.37625,-0.06125,0.5950000000000001
1741711895.7511103,-0.519842,0.851438,0.150609,-0.18375,-0.14875,0.5162500000000001
1741711895.7540789,-0.523563,0.852658,0.152805,-0.27125,0.07875,0.60375
1741711895.75753,-0.520269,0.848876,0.151524,-0.20125,-0.16625,0.49875
1741711895.760126,-0.521977,0.850279,0.150731,-0.25375,-0.07875,0.56
1741711895.7630434,-0.518744,0.85461,0.149816,-0.1925,-0.1225,0.7087500000000001
1741711895.765424,-0.518012,0.853756,0.149816,-0.21,-0.09625,0.56
1741711895.768067,-0.52338,0.854976,0.149511,-0.385,-0.07875,0.6300000000000001
1741711895.7703035,-0.525149,0.853085,0.150487,-0.1575,-0.0525,0.58625
1741711895.7743402,-0.5225259999999999,0.852109,0.151402,-0.2275,0.02625,0.55125
1741711895.7779932,-0.523197,0.851926,0.1526829999999999,-0.2625,0.0175,0.49
1741711895.7806194,-0.523868,0.853268,0.153781,-0.28,-0.07875,0.41125
1741711895.7835286,-0.522709,0.84851,0.150365,-0.1925,-0.175,0.5075000000000001
1741711895.7860205,-0.525149,0.8547319999999999,0.15128,-0.3675,-0.06125,0.5425000000000001
1741711895.7887154,-0.520635,0.8529019999999999,0.154025,-0.245,-0.175,0.63875
1741711895.7913425,-0.521489,0.851621,0.142679,-0.18375,-0.09625,0.69125
1741711895.7951612,-0.5231359999999999,0.852658,0.152134,-0.13125,-0.11375,0.60375
1741711895.7982328,-0.520269,0.8507669999999999,0.151524,-0.175,-0.105,0.7175
1741711895.8011494,-0.521428,0.851499,0.153415,-0.23625,-0.0525,0.42875
1741711895.8037455,-0.527772,0.853573,0.150914,-0.34125,-0.0525,0.4025
1741711895.8065057,-0.519659,0.853024,0.154574,-0.18375,-0.06125,0.56
1741711895.8088906,-0.521489,0.852048,0.15067,-0.32375,-0.18375,0.6737500000000001
1741711895.8121436,-0.525454,0.85034,0.150731,-0.28875,-0.04375,0.6300000000000001
1741711895.8157067,-0.521367,0.85217,0.151585,-0.27125,-0.11375,0.6212500000000001
1741711895.8190312,-0.523807,0.852109,0.1523779999999999,-0.23625,-0.09625,0.525
1741711895.8216228,-0.524417,0.851804,0.15128,-0.16625,-0.02625,0.5337500000000001
1741711895.824444,-0.525881,0.853573,0.1525,-0.21875,-0.175,0.5687500000000001
1741711895.8268485,-0.526796,0.85217,0.149023,-0.20125,-0.07,0.6125
1741711895.829341,-0.520147,0.8516819999999999,0.14762,-0.175,-0.09625,0.48125
1741711895.831939,-0.521367,0.8504619999999999,0.152317,-0.28,-0.16625,0.60375
1741711895.8360207,-0.523807,0.8525969999999999,0.15189,-0.21,-0.1225,0.5337500000000001
1741711895.8392396,-0.525332,0.852658,0.1525,-0.13125,0.04375,0.7350000000000001
1741711895.8418477,-0.522404,0.854183,0.152256,-0.16625,-0.1575,0.5950000000000001
1741711895.844775,-0.524356,0.855159,0.148718,-0.14875,0.02625,0.5950000000000001
1741711895.847234,-0.522404,0.851194,0.151829,-0.28,-0.175,0.6562500000000001
1741711895.8499317,-0.522404,0.854061,0.150792,-0.16625,-0.1225,0.55125
1741711895.852906,-0.525759,0.853024,0.1464,-0.1925,-0.0875,0.525
1741711895.8563895,-0.518378,0.851865,0.1532929999999999,-0.21875,-0.09625,0.44625
1741711895.859085,-0.519293,0.851255,0.148291,-0.21875,-0.1225,0.56
1741711895.8619936,-0.52094,0.852536,0.149877,-0.245,-0.07,0.63875
1741711895.864605,-0.524295,0.851133,0.14579,-0.30625,-0.00875,0.525
1741711895.8673546,-0.521977,0.8519869999999999,0.153476,-0.245,-0.105,0.46375
1741711895.8697648,-0.523685,0.8544269999999999,0.150121,-0.2625,-0.09625,0.5950000000000001
1741711895.8728445,-0.5240509999999999,0.854,0.154696,-0.28,0.035,0.6300000000000001
1741711895.875888,-0.520574,0.853268,0.151524,-0.23625,-0.25375,0.49875
1741711895.8789115,-0.525637,0.850706,0.151707,-0.28,-0.0875,0.525
1741711895.8819077,-0.523075,0.852414,0.151219,-0.20125,-0.07875,0.6212500000000001
1741711895.884489,-0.5203909999999999,0.850035,0.151402,-0.3675,-0.0525,0.49
1741711895.887346,-0.520513,0.8507669999999999,0.148169,-0.20125,-0.02625,0.5775
1741711895.8897457,-0.5240509999999999,0.853878,0.156099,-0.32375,-0.07,0.5950000000000001
1741711895.8936317,-0.522892,0.854854,0.1526829999999999,-0.27125,-0.0875,0.58625
1741711895.8980885,-0.525271,0.8525969999999999,0.152927,-0.25375,-0.0175,0.665
1741711895.9023302,-0.526613,0.851743,0.1462169999999999,-0.2275,-0.16625,0.5337500000000001
1741711895.905504,-0.526003,0.851194,0.153232,-0.1575,-0.14875,0.6212500000000001
1741711895.908202,-0.524661,0.854061,0.154574,-0.20125,-0.0875,0.58625
1741711895.9112334,-0.521489,0.855708,0.156831,-0.11375,-0.035,0.5775
1741711895.914171,-0.52277,0.854183,0.1526829999999999,-0.385,0.0175,0.63875
1741711895.917894,-0.523563,0.850218,0.149877,-0.1925,-0.13125,0.5425000000000001
1741711895.921466,-0.5234409999999999,0.853146,0.147986,-0.28,-0.1225,0.5162500000000001
1741711895.9243088,-0.524783,0.8559519999999999,0.157807,-0.23625,-0.04375,0.55125
1741711895.92739,-0.522648,0.851865,0.150365,-0.2275,0.035,0.5775
1741711895.9299796,-0.525088,0.852048,0.1474369999999999,-0.28,0.0525,0.6300000000000001
1741711895.9327407,-0.526064,0.851865,0.154452,-0.23625,-0.1225,0.6212500000000001
1741711895.936735,-0.521367,0.850035,0.1471319999999999,-0.245,0.035,0.6125
1741711895.9405668,-0.522099,0.8532069999999999,0.148413,-0.21875,-0.07,0.5075000000000001
1741711895.9432638,-0.524478,0.850828,0.1477419999999999,-0.27125,-0.035,0.5337500000000001
1741711895.9465094,-0.5200859999999999,0.8510719999999999,0.152256,-0.25375,-0.13125,0.6300000000000001
1741711895.9493706,-0.5228309999999999,0.8522919999999999,0.15067,-0.315,-0.21875,0.6300000000000001
1741711895.9525409,-0.526552,0.852963,0.1548179999999999,-0.245,-0.1575,0.455
1741711895.9554558,-0.521428,0.848693,0.151402,-0.30625,-0.16625,0.5162500000000001
1741711895.9600768,-0.5246,0.852475,0.1545129999999999,-0.1925,-0.0175,0.5950000000000001
1741711895.964213,-0.525515,0.8519869999999999,0.150792,-0.30625,-0.09625,0.5425000000000001
1741711895.9676602,-0.5206959999999999,0.854305,0.1545129999999999,-0.20125,-0.18375,0.5337500000000001
1741711895.9706206,-0.522038,0.8519869999999999,0.15189,-0.28,-0.21875,0.5687500000000001
1741711895.973569,-0.5164259999999999,0.851438,0.154696,-0.28875,-0.0875,0.6300000000000001
1741711895.9763896,-0.524173,0.853695,0.151768,-0.34125,-0.0875,0.5775
1741711895.981517,-0.522465,0.85339,0.150304,-0.28,-0.105,0.42875
1741711895.9845955,-0.5219159999999999,0.8519869999999999,0.155733,-0.1225,-0.04375,0.58625
1741711895.9876833,-0.527406,0.853146,0.149938,-0.3325,-0.04375,0.56
1741711895.991242,-0.522404,0.853329,0.153537,-0.245,-0.04375,0.525
1741711895.994151,-0.522404,0.8519869999999999,0.156648,-0.28,-0.02625,0.5950000000000001
1741711895.9969535,-0.520269,0.8513769999999999,0.1551229999999999,-0.16625,-0.105,0.5337500000000001
1741711896.0017636,-0.520879,0.85156,0.1548179999999999,-0.315,-0.14,0.60375
1741711896.0055356,-0.524356,0.852109,0.149816,-0.21875,-0.04375,0.6562500000000001
1741711896.0086722,-0.5237459999999999,0.853146,0.151524,-0.2975,-0.07,0.58625
1741711896.0117538,-0.523502,0.8535119999999999,0.150975,-0.1925,-0.11375,0.5687500000000001
1741711896.0147362,-0.522709,0.852231,0.151463,-0.2975,-0.07875,0.6300000000000001
1741711896.0170734,-0.524173,0.849913,0.150304,-0.11375,-0.07875,0.525
1741711896.0206945,-0.523319,0.8562569999999999,0.153537,-0.315,-0.0525,0.5950000000000001
1741711896.0236332,-0.524356,0.85278,0.152866,-0.21875,-0.07,0.6475000000000001
1741711896.0265262,-0.5222209999999999,0.85034,0.149633,-0.245,-0.105,0.5775
1741711896.0290852,-0.519293,0.852353,0.150548,-0.14875,-0.09625,0.49
1741711896.0320067,-0.5237459999999999,0.852841,0.152439,-0.30625,-0.09625,0.7087500000000001
1741711896.0344443,-0.525088,0.85461,0.156709,-0.14875,-0.04375,0.6475000000000001
1741711896.0370245,-0.525271,0.853451,0.150609,-0.245,-0.16625,0.6475000000000001
1741711896.0396807,-0.526003,0.85034,0.154391,-0.28,-0.1575,0.63875
1741711896.0431075,-0.525515,0.852048,0.151219,-0.21875,-0.00875,0.5425000000000001
1741711896.0459683,-0.520757,0.849669,0.151707,-0.27125,-0.00875,0.42875
1741711896.0488758,-0.519964,0.8525969999999999,0.1525,-0.245,-0.0175,0.49875
1741711896.0513835,-0.521672,0.855891,0.152561,-0.07,-0.02625,0.6212500000000001
1741711896.0542552,-0.526125,0.854671,0.150426,-0.35875,-0.105,0.60375
1741711896.0566683,-0.526857,0.851926,0.151463,-0.245,-0.0875,0.525
1741711896.059837,-0.52399,0.8544269999999999,0.15128,-0.14875,-0.0875,0.5425000000000001
1741711896.0634456,-0.523197,0.851316,0.151036,-0.175,-0.1225,0.6125
1741711896.066093,-0.521855,0.851011,0.149755,-0.23625,-0.0525,0.42
1741711896.068981,-0.523319,0.855708,0.149572,-0.25375,-0.0875,0.6475000000000001
1741711896.0715714,-0.5240509999999999,0.854793,0.1415809999999999,-0.0875,-0.14,0.56
1741711896.074353,-0.5213059999999999,0.85156,0.150792,-0.18375,-0.175,0.48125
1741711896.0767264,-0.521672,0.8483269999999999,0.149084,-0.23625,-0.14875,0.6300000000000001
1741711896.0798032,-0.525088,0.850218,0.152805,-0.315,-0.14,0.665
1741711896.0827465,-0.52399,0.85217,0.150914,-0.25375,-0.13125,0.5162500000000001
1741711896.0861354,-0.520574,0.853695,0.149877,-0.28875,-0.06125,0.5337500000000001
1741711896.089052,-0.521672,0.852109,0.149877,-0.28,-0.035,0.5162500000000001
1741711896.091661,-0.519232,0.851621,0.151951,-0.1925,-0.16625,0.6300000000000001
1741711896.0944092,-0.52155,0.852048,0.151219,-0.25375,-0.06125,0.49
1741711896.096818,-0.52216,0.853695,0.150182,-0.25375,-0.13125,0.5425000000000001
1741711896.099749,-0.519537,0.851255,0.152256,-0.2625,0.00875,0.5950000000000001
1741711896.103207,-0.523563,0.8553419999999999,0.152256,-0.1225,-0.07875,0.55125
1741711896.1065753,-0.52338,0.854,0.152134,-0.0875,-0.07,0.60375
1741711896.1095018,-0.523075,0.85461,0.157746,-0.27125,-0.105,0.6125
1741711896.1121285,-0.526247,0.854793,0.150182,-0.18375,-0.105,0.665
1741711896.114882,-0.5200859999999999,0.853451,0.148901,-0.1575,-0.175,0.5950000000000001
1741711896.117265,-0.527467,0.854061,0.148413,-0.28,-0.07875,0.55125
1741711896.1202242,-0.521977,0.853573,0.15311,-0.245,-0.14,0.6125
1741711896.123457,-0.52155,0.854854,0.151829,-0.245,-0.0525,0.5162500000000001
1741711896.1268544,-0.523197,0.851926,0.150853,-0.1925,-0.0175,0.60375
1741711896.1297894,-0.518683,0.850706,0.154086,-0.25375,-0.1225,0.5687500000000001
1741711896.1322782,-0.522282,0.852109,0.149511,-0.1575,-0.00875,0.60375
1741711896.1348484,-0.5237459999999999,0.852841,0.152256,-0.27125,-0.0175,0.7087500000000001
1741711896.1372206,-0.523502,0.8504619999999999,0.149999,-0.34125,-0.1225,0.55125
1741711896.1400893,-0.526308,0.852353,0.149816,-0.21875,-0.13125,0.6125
1741711896.1435225,-0.519598,0.853146,0.151463,-0.35,-0.04375,0.5687500000000001
1741711896.1467595,-0.523929,0.8525969999999999,0.149389,-0.35,0.09625,0.5950000000000001
1741711896.149336,-0.5213059999999999,0.850706,0.151951,-0.315,0.0175,0.7175
1741711896.1522486,-0.526186,0.850706,0.1492669999999999,-0.23625,-0.1225,0.5950000000000001
1741711896.154749,-0.5246,0.852719,0.1486569999999999,-0.18375,0.02625,0.525
1741711896.1574411,-0.520147,0.853024,0.149938,-0.35,-0.0875,0.5075000000000001
1741711896.159877,-0.52643,0.85339,0.151097,-0.28,-0.175,0.5337500000000001
1741711896.1639702,-0.523014,0.8550369999999999,0.150975,-0.27125,-0.04375,0.6562500000000001
1741711896.167372,-0.52216,0.8486319999999999,0.151463,0.0175,-0.14,0.6125
1741711896.1702952,-0.524356,0.853756,0.152622,-0.32375,-0.105,0.49875
1741711896.1728806,-0.523929,0.850523,0.15128,-0.175,-0.00875,0.6212500000000001
1741711896.1756446,-0.5231359999999999,0.85339,0.150609,-0.23625,-0.07875,0.58625
1741711896.1780543,-0.52521,0.855098,0.148901,-0.11375,-0.00875,0.5775
1741711896.1809423,-0.522587,0.855525,0.15677,-0.35875,-0.13125,0.6212500000000001
1741711896.1846125,-0.522282,0.855403,0.1489619999999999,-0.2275,-0.16625,0.63875
1741711896.187826,-0.525271,0.8538169999999999,0.154025,-0.2625,0.0175,0.69125
1741711896.190747,-0.530395,0.852536,0.152805,-0.18375,-0.105,0.5162500000000001
1741711896.193308,-0.523868,0.852719,0.149206,-0.245,-0.105,0.55125
1741711896.1960711,-0.520025,0.8538169999999999,0.153476,-0.16625,-0.105,0.6475000000000001
1741711896.198486,-0.519293,0.853695,0.152744,-0.25375,-0.04375,0.6212500000000001
1741711896.201386,-0.526552,0.854854,0.151646,-0.25375,-0.14875,0.525
1741711896.2043674,-0.521184,0.852658,0.150853,-0.14875,-0.0875,0.5950000000000001
1741711896.2075324,-0.524173,0.850645,0.151158,-0.28,-0.105,0.46375
1741711896.2101538,-0.5246,0.8516819999999999,0.151524,-0.34125,-0.02625,0.525
1741711896.2130284,-0.519964,0.851133,0.152256,-0.18375,-0.1225,0.5162500000000001
1741711896.2155278,-0.5219159999999999,0.851133,0.151951,-0.21,-0.13125,0.6125
1741711896.218266,-0.5210009999999999,0.852658,0.151158,-0.175,0.02625,0.48125
1741711896.2206368,-0.524112,0.8501569999999999,0.148718,-0.07875,-0.09625,0.5950000000000001
1741711896.2244575,-0.523502,0.851499,0.149389,-0.315,-0.00875,0.56
1741711896.2275794,-0.526674,0.854305,0.150731,-0.2975,-0.18375,0.5775
1741711896.230235,-0.525088,0.853268,0.1462169999999999,-0.21,-0.04375,0.58625
1741711896.2331269,-0.522343,0.852536,0.152744,-0.2275,-0.105,0.56
1741711896.235687,-0.521794,0.851011,0.154696,-0.21,0.0,0.4725
1741711896.2383974,-0.5213059999999999,0.852719,0.149755,-0.21875,2.21375,0.5425000000000001
1741711896.2407892,-0.519415,0.85034,0.149694,-0.21875,-0.18375,0.6300000000000001
1741711896.244694,-0.524783,0.855403,0.150609,-0.245,-0.07,0.49
1741711896.2482378,-0.523563,0.8538169999999999,0.153537,-0.2275,0.0175,0.5162500000000001
1741711896.2508488,-0.51911,0.852475,0.153415,-0.18375,-0.02625,0.55125
1741711896.253753,-0.52216,0.851133,0.155428,-0.21,-0.035,0.49875
1741711896.256299,-0.523929,0.8525969999999999,0.153049,-0.25375,-0.07,0.5162500000000001
1741711896.2590067,-0.519049,0.8525969999999999,0.15616,-0.16625,-0.00875,0.56
1741711896.2614198,-0.524722,0.853085,0.150182,-0.25375,-0.035,0.49875
1741711896.265458,-0.523685,0.852719,0.149572,-0.25375,-0.04375,0.5950000000000001
1741711896.268936,-0.5225259999999999,0.848876,0.1542079999999999,-0.2275,-0.11375,0.44625
1741711896.271531,-0.5234409999999999,0.855098,0.150853,-0.1925,-0.0525,0.385
1741711896.2744558,-0.52582,0.854915,0.152195,-0.21,-0.13125,0.58625
1741711896.2769835,-0.52033,0.854976,0.1539029999999999,-0.245,0.00875,0.49875
1741711896.279627,-0.518988,0.852719,0.149145,-0.37625,-0.035,0.7000000000000001
1741711896.28187,-0.52643,0.852719,0.149206,-0.25375,-0.18375,0.58625
1741711896.2847035,-0.523624,0.8516819999999999,0.148535,-0.1225,-0.1225,0.55125
1741711896.287864,-0.520574,0.8519869999999999,0.152317,-0.315,-0.20125,0.6737500000000001
1741711896.2909756,-0.521428,0.8516819999999999,0.15372,-0.1925,0.0175,0.5075000000000001
1741711896.2935238,-0.522099,0.854976,0.156526,-0.21,-0.04375,0.7000000000000001
1741711896.2964263,-0.520879,0.851621,0.150304,-0.35,-0.105,0.6737500000000001
1741711896.2989964,-0.52277,0.851621,0.1486569999999999,-0.35,-0.21,0.525
1741711896.3017406,-0.523197,0.851743,0.151341,-0.07,-0.18375,0.49875
1741711896.3041458,-0.5216109999999999,0.854,0.152805,-0.175,-0.0525,0.525
1741711896.3074098,-0.525393,0.8525969999999999,0.151158,-0.30625,-0.1225,0.4725
1741711896.3109798,-0.524295,0.853695,0.150243,-0.1575,-0.07875,0.56
1741711896.313581,-0.5237459999999999,0.852475,0.150609,-0.20125,-0.0175,0.56
1741711896.3164926,-0.521245,0.853024,0.152317,-0.20125,-0.04375,0.5425000000000001
1741711896.31908,-0.5179509999999999,0.854915,0.150975,-0.21,0.02625,0.6475000000000001
1741711896.321853,-0.519964,0.852109,0.153354,-0.2625,-0.1575,0.5687500000000001
1741711896.324258,-0.522953,0.850279,0.147376,-0.11375,-0.105,0.525
1741711896.3273792,-0.520513,0.852414,0.151097,-0.175,-0.02625,0.5950000000000001
1741711896.3308628,-0.522587,0.8495469999999999,0.152561,-0.21875,-0.1225,0.5162500000000001
1741711896.3333082,-0.523868,0.855891,0.149389,-0.175,-0.21875,0.58625
1741711896.336224,-0.51911,0.854061,0.153049,-0.14,-0.21,0.6825000000000001
1741711896.3388312,-0.523197,0.854,0.147498,-0.30625,-0.13125,0.46375
1741711896.3415828,-0.5234409999999999,0.850584,0.152439,-0.21,-0.105,0.5075000000000001
1741711896.3438983,-0.518744,0.8541219999999999,0.149694,-0.1925,0.02625,0.4725
1741711896.3466344,-0.521367,0.85034,0.152317,-0.27125,-0.04375,0.6125
1741711896.3501258,-0.5228309999999999,0.852963,0.1529879999999999,-0.14875,-0.035,0.5775
1741711896.353286,-0.5234409999999999,0.853329,0.149755,-0.28,-0.02625,0.56
1741711896.3558784,-0.526613,0.855464,0.151097,-0.25375,-0.13125,0.5162500000000001
1741711896.3587902,-0.5194759999999999,0.852353,0.152439,-0.2975,-0.035,0.55125
1741711896.3612423,-0.519659,0.849974,0.156465,-0.25375,-0.07,0.55125
1741711896.363946,-0.518378,0.847778,0.147681,-0.41125,-0.13125,0.5162500000000001
1741711896.3665056,-0.522892,0.851865,0.147559,-0.30625,-0.1575,0.6475000000000001
1741711896.3703408,-0.524234,0.8559519999999999,0.1526829999999999,-0.23625,-0.0175,0.60375
1741711896.3737595,-0.523014,0.852353,0.153964,-0.245,-0.09625,0.5775
1741711896.376587,-0.526186,0.8516819999999999,0.149877,-0.14875,-0.0175,0.6125
1741711896.3791063,-0.517829,0.8507669999999999,0.149145,-0.21875,-0.07,0.5425000000000001
1741711896.381731,-0.522343,0.849974,0.150853,-0.2275,-0.13125,0.63875
1741711896.3841677,-0.5200859999999999,0.851255,0.150243,-0.35,0.0,0.58625
1741711896.3870504,-0.524478,0.855159,0.152256,-0.35,-0.04375,0.5775
1741711896.390277,-0.524295,0.8532069999999999,0.1542079999999999,-0.18375,-0.0875,0.6562500000000001
1741711896.3938642,-0.5185609999999999,0.851621,0.149877,-0.30625,-0.105,0.5775
1741711896.396468,-0.51972,0.852719,0.152622,-0.2275,-0.07875,0.6562500000000001
1741711896.3993895,-0.521123,0.8532069999999999,0.1520729999999999,-0.3325,-0.04375,0.5162500000000001
1741711896.401858,-0.522038,0.851621,0.151524,-0.23625,-0.1225,0.56
1741711896.404562,-0.52826,0.851438,0.155428,-0.315,-0.13125,0.5775
1741711896.4071414,-0.51789,0.853939,0.1525,-0.1575,0.0175,0.49
1741711896.4115794,-0.519415,0.8544269999999999,0.14823,-0.21875,-0.07,0.5950000000000001
1741711896.4148111,-0.526979,0.858819,0.152805,-0.25375,-0.21,0.56
1741711896.4172862,-0.523563,0.854366,0.152561,-0.34125,-0.1575,0.7000000000000001
1741711896.4202187,-0.5206959999999999,0.849669,0.152195,-0.315,-0.00875,0.49
1741711896.4226737,-0.5219159999999999,0.851499,0.152744,-0.105,-0.07,0.60375
1741711896.4253623,-0.5145959999999999,0.848083,0.14518,-0.2275,-0.07875,0.44625
1741711896.427955,-0.520452,0.851194,0.144326,-0.28,-0.245,0.44625
1741711896.4315093,-0.522892,0.853695,0.157136,-0.315,-0.16625,0.5337500000000001
1741711896.434487,-0.534543,0.8574769999999999,0.151219,-0.25375,-0.00875,0.6212500000000001
1741711896.4373715,-0.517829,0.853939,0.151768,-0.32375,-0.16625,0.42
1741711896.4399557,-0.529297,0.8525969999999999,0.1406659999999999,-0.11375,0.0525,0.525
1741711896.4427314,-0.523502,0.854549,0.140788,-0.06125,0.14875,0.6300000000000001
1741711896.445117,-0.521245,0.852475,0.150121,-0.21,-0.13125,0.5337500000000001
1741711896.447968,-0.5203909999999999,0.853634,0.153964,-0.14,-0.00875,0.4725
1741711896.4517016,-0.521184,0.849974,0.150365,-0.2625,-0.14875,0.56
1741711896.4550834,-0.524173,0.847229,0.149145,-0.21875,-0.02625,0.6737500000000001
1741711896.4578938,-0.5182559999999999,0.856196,0.151646,-0.245,-0.0525,0.4725
1741711896.46236,-0.522343,0.8571719999999999,0.1545129999999999,-0.13125,-0.14875,0.6212500000000001
1741711896.465142,-0.523258,0.851621,0.152256,-0.3675,-0.105,0.60375
1741711896.467634,-0.528504,0.8525969999999999,0.1525,-0.34125,-0.09625,0.60375
1741711896.4704747,-0.5222209999999999,0.851621,0.156038,-0.39375,0.00875,0.6562500000000001
1741711896.4733684,-0.518317,0.85522,0.145851,-0.09625,0.07875,0.5425000000000001
1741711896.4765558,-0.523929,0.858941,0.147498,-0.41125,-0.35875,0.385
1741711896.4790652,-0.523258,0.850584,0.160613,-0.18375,-0.16625,0.4725
1741711896.4819782,-0.522465,0.84973,0.1477419999999999,-0.245,0.2275,0.74375
1741711896.4845405,-0.516609,0.848388,0.144875,-0.28,-0.1925,0.55125
1741711896.487272,-0.52216,0.854,0.144509,-0.3325,-0.21875,0.6212500000000001
1741711896.4896894,-0.52338,0.857538,0.151219,-0.41125,-0.28875,0.4375
1741711896.493202,-0.531249,0.852841,0.158295,-0.02625,-0.06125,0.49875
1741711896.496328,-0.521184,0.8480219999999999,0.153537,-0.07,0.14875,0.6825000000000001
1741711896.4989407,-0.513437,0.84241,0.1480469999999999,-0.28875,-0.09625,0.63875
1741711896.501519,-0.518439,0.851926,0.148901,-0.385,-0.30625,0.5337500000000001
1741711896.5041108,-0.521062,0.857294,0.153476,-0.35,-0.18375,0.46375
1741711896.5065634,-0.530578,0.8571719999999999,0.156099,-0.1925,-0.11375,0.4375
1741711896.508947,-0.524783,0.854366,0.155794,-0.1925,-0.06125,0.48125
1741711896.5117629,-0.521367,0.852841,0.145241,-0.32375,0.13125,0.7087500000000001
1741711896.5147765,-0.515572,0.849791,0.1464,-0.23625,-0.04375,0.6212500000000001
1741711896.5179193,-0.5216109999999999,0.852231,0.144631,-0.28,-0.1575,0.5775
1741711896.520579,-0.522648,0.851743,0.153659,-0.42,-0.25375,0.46375
1741711896.5229435,-0.524966,0.8544269999999999,0.163724,-0.18375,-0.07875,0.5950000000000001
1741711896.5254602,-0.519415,0.85522,0.146583,-0.1575,0.04375,0.69125
1741711896.527855,-0.524112,0.854549,0.148413,-0.28875,-0.175,0.49875
1741711896.5302815,-0.523868,0.852414,0.152317,-0.2625,-0.2275,0.6300000000000001
1741711896.533086,-0.5222209999999999,0.853268,0.155855,-0.28,0.00875,0.69125
1741711896.5358093,-0.5231359999999999,0.854305,0.151463,-0.21,-0.14,0.55125
1741711896.5386474,-0.527589,0.853085,0.149145,-0.245,-0.07,0.7087500000000001
1741711896.541201,-0.517158,0.852109,0.152805,-0.27125,0.00875,0.6125
1741711896.5437896,-0.520574,0.849364,0.1529879999999999,-0.28,-0.04375,0.5687500000000001
1741711896.546279,-0.521855,0.852719,0.1525,-0.20125,-0.06125,0.5162500000000001
1741711896.5486698,-0.521367,0.853573,0.151707,-0.175,-0.105,0.55125
1741711896.5510693,-0.52338,0.851926,0.147071,-0.245,0.06125,0.6562500000000001
1741711896.5547922,-0.519903,0.8532069999999999,0.149023,-0.385,-0.21875,0.5162500000000001
1741711896.5575678,-0.522465,0.850584,0.154269,-0.3675,-0.14,0.5950000000000001
1741711896.560216,-0.525393,0.8559519999999999,0.149877,-0.27125,-0.2275,0.49
1741711896.562773,-0.525942,0.853695,0.155672,-0.21875,-0.245,0.55125
1741711896.565365,-0.524539,0.851316,0.150182,-0.21875,0.07875,0.6300000000000001
1741711896.567848,-0.517707,0.852353,0.144875,-0.2275,-0.035,0.6125
1741711896.5702612,-0.523685,0.853939,0.147864,-0.35875,-0.16625,0.48125
1741711896.572861,-0.523685,0.853878,0.153964,-0.3675,-0.14875,0.49875
1741711896.576071,-0.522648,0.853146,0.152256,-0.2275,-0.035,0.665
1741711896.5791826,-0.524844,0.853024,0.148596,-0.1925,0.0175,0.5337500000000001
1741711896.5815234,-0.5240509999999999,0.851926,0.147864,-0.28,-0.1925,0.5775
1741711896.58415,-0.520513,0.854671,0.148474,-0.3325,-0.0875,0.46375
1741711896.5867157,-0.52094,0.8519869999999999,0.155916,-0.21,-0.06125,0.5950000000000001
1741711896.5891476,-0.527833,0.853695,0.155794,-0.28,-0.105,0.665
1741711896.5915625,-0.5219159999999999,0.854671,0.1579289999999999,-0.105,0.035,0.6125
1741711896.5944176,-0.521123,0.847351,0.149328,-0.1575,0.0,0.58625
1741711896.596964,-0.520147,0.8483269999999999,0.144875,-0.2625,-0.1225,0.5950000000000001
1741711896.6001554,-0.518744,0.849608,0.148596,-0.30625,-0.175,0.6475000000000001
1741711896.6027656,-0.522404,0.847656,0.153659,-0.14,-0.09625,0.5337500000000001
1741711896.605349,-0.529114,0.860466,0.151036,-0.3325,-0.0525,0.35875
1741711896.607795,-0.523014,0.854183,0.157136,-0.13125,-0.14,0.525
1741711896.610088,-0.5219159999999999,0.845216,0.149084,0.11375,-0.035,0.49875
1741711896.612289,-0.52094,0.845399,0.1477419999999999,-0.2625,0.07,0.6825000000000001
1741711896.615151,-0.515389,0.85339,0.150609,-0.2275,-0.27125,0.5425000000000001
1741711896.6184304,-0.5200859999999999,0.85278,0.157197,-0.175,-0.00875,0.5687500000000001
1741711896.6208222,-0.525576,0.856684,0.151219,-0.28875,-0.0525,0.5337500000000001
1741711896.6233895,-0.525637,0.857599,0.1585389999999999,-0.28,-0.16625,0.63875
1741711896.6258423,-0.522343,0.852658,0.156099,-0.1925,0.14875,0.5425000000000001
1741711896.6281252,-0.518622,0.847961,0.1489619999999999,-0.1575,0.04375,0.37625
1741711896.63053,-0.5188659999999999,0.852719,0.149572,-0.28,-0.28,0.56
1741711896.6327932,-0.520635,0.849486,0.151951,-0.28,-0.14875,0.55125
1741711896.6356547,-0.524844,0.851743,0.151219,-0.34125,-0.02625,0.5950000000000001
1741711896.6386805,-0.523258,0.85583,0.155855,-0.245,-0.105,0.46375
1741711896.6410558,-0.527101,0.855464,0.151158,-0.21875,-0.07,0.58625
1741711896.6436715,-0.525759,0.853695,0.148108,-0.21,-0.04375,0.56
1741711896.6462636,-0.522099,0.854793,0.150365,-0.25375,-0.13125,0.56
1741711896.6487324,-0.525637,0.84912,0.153232,-0.28,-0.14875,0.58625
1741711896.6511643,-0.522282,0.848571,0.14823,-0.20125,-0.02625,0.665
1741711896.6536522,-0.518073,0.848693,0.147315,-0.35875,-0.04375,0.6475000000000001
1741711896.657331,-0.5222209999999999,0.852841,0.152195,-0.23625,-0.20125,0.455
1741711896.6605756,-0.525027,0.855098,0.1492669999999999,-0.13125,-0.09625,0.44625
1741711896.6631873,-0.520452,0.854976,0.152439,-0.09625,-0.0175,0.455
1741711896.6657913,-0.529114,0.851926,0.151158,-0.09625,-0.0525,0.63875
1741711896.6683562,-0.521062,0.851011,0.151829,-0.28,-0.06125,0.6300000000000001
1741711896.670782,-0.526247,0.84973,0.149084,-0.28875,-0.14,0.60375
1741711896.6731482,-0.5228309999999999,0.85583,0.153659,-0.21,-0.2275,0.5425000000000001
1741711896.6759932,-0.521489,0.8574769999999999,0.155062,-0.21875,-0.105,0.48125
1741711896.6789,-0.523197,0.855403,0.153964,-0.27125,-0.00875,0.6300000000000001
1741711896.6817555,-0.524173,0.8525969999999999,0.1468269999999999,-0.13125,-0.02625,0.63875
1741711896.6843593,-0.518073,0.853146,0.151524,-0.28875,-0.16625,0.58625
1741711896.6869504,-0.5191709999999999,0.84912,0.151219,-0.21875,-0.1925,0.63875
1741711896.6894476,-0.5222209999999999,0.853451,0.153232,-0.385,-0.09625,0.60375
1741711896.6918392,-0.5246,0.857965,0.153415,-0.1575,-0.14,0.6300000000000001
1741711896.6942458,-0.5237459999999999,0.855464,0.1477419999999999,-0.175,-0.09625,0.60375
1741711896.6969817,-0.524905,0.854183,0.1489619999999999,-0.175,-0.00875,0.5337500000000001
1741711896.6999445,-0.523258,0.853024,0.150121,-0.35,-0.07875,0.525
1741711896.7025323,-0.5179509999999999,0.849913,0.152561,-0.23625,-0.04375,0.56
1741711896.7049308,-0.525393,0.855708,0.150121,-0.37625,0.02625,0.63875
1741711896.7072573,-0.519659,0.85339,0.146766,-0.35,-0.16625,0.5162500000000001
1741711896.7097983,-0.52277,0.8501569999999999,0.151524,-0.14875,-0.1225,0.5162500000000001
1741711896.712537,-0.524722,0.852536,0.153964,-0.16625,-0.06125,0.63875
1741711896.7151518,-0.526247,0.855159,0.151097,-0.2975,-0.07875,0.455
1741711896.718109,-0.523319,0.853085,0.153171,-0.30625,-0.09625,0.6475000000000001
1741711896.7204914,-0.521977,0.850035,0.150731,-0.21,-0.0525,0.55125
1741711896.723067,-0.524173,0.8550369999999999,0.146705,-0.21,0.0,0.5425000000000001
1741711896.7257397,-0.520635,0.852414,0.154635,-0.4375,-0.1225,0.5775
1741711896.7280045,-0.525393,0.849608,0.150304,-0.21875,-0.04375,0.44625
1741711896.730411,-0.5213059999999999,0.851926,0.156648,-0.25375,0.0,0.5687500000000001
1741711896.7329705,-0.52399,0.849425,0.149999,-0.20125,-0.11375,0.5950000000000001
1741711896.736286,-0.5203909999999999,0.848571,0.151158,-0.2275,-0.02625,0.6825000000000001
1741711896.7393308,-0.5185609999999999,0.8516819999999999,0.15067,-0.2275,-0.1575,0.5162500000000001
1741711896.7417305,-0.528809,0.8535119999999999,0.157014,-0.35,-0.14,0.5162500000000001
1741711896.7443342,-0.5240509999999999,0.85217,0.1523779999999999,-0.28,-0.035,0.6562500000000001
1741711896.7469225,-0.518927,0.853878,0.1532929999999999,-0.30625,-0.09625,0.5162500000000001
1741711896.7492352,-0.521672,0.849669,0.15311,-0.23625,2.1175,0.6475000000000001
1741711896.7514842,-0.526552,0.848998,0.149999,-0.16625,0.00875,0.6125
1741711896.7541082,-0.522282,0.8510719999999999,0.1483519999999999,-0.20125,-0.06125,0.6562500000000001
1741711896.7572095,-0.520757,0.851804,0.149572,-0.27125,-0.02625,0.5162500000000001
1741711896.7601235,-0.5240509999999999,0.856013,0.150914,-0.245,-0.175,0.48125
1741711896.7626624,-0.519659,0.854488,0.153171,-0.1925,-0.13125,0.525
1741711896.7651784,-0.526247,0.8522919999999999,0.15555,-0.18375,-0.105,0.5162500000000001
1741711896.7677867,-0.522343,0.851621,0.150914,-0.14875,-0.09625,0.74375
1741711896.771293,-0.522099,0.850035,0.150792,-0.245,-0.14875,0.46375
1741711896.7738445,-0.526003,0.854,0.154086,-0.2275,-0.13125,0.6125
1741711896.7767167,-0.520574,0.850706,0.150792,-0.16625,0.00875,0.55125
1741711896.7790446,-0.521977,0.853268,0.154269,-0.28875,-0.20125,0.63875
1741711896.781486,-0.524295,0.85278,0.149511,-0.34125,-0.0875,0.6475000000000001
1741711896.7838922,-0.52216,0.8529019999999999,0.155306,-0.14,-0.21875,0.49
1741711896.786241,-0.521672,0.851194,0.1545129999999999,-0.105,-0.04375,0.4725
1741711896.788422,-0.518439,0.856074,0.150731,-0.21,-0.21875,0.5425000000000001
1741711896.7918336,-0.521123,0.852963,0.152134,-0.11375,-0.07,0.6125
1741711896.795328,-0.524905,0.854061,0.150609,-0.34125,-0.20125,0.6125
1741711896.798428,-0.525271,0.854244,0.1532929999999999,-0.2275,-0.105,0.5425000000000001
1741711896.800964,-0.518195,0.8547319999999999,0.154025,-0.13125,-0.04375,0.49
1741711896.8038833,-0.522404,0.851438,0.149877,-0.1225,-2.24,0.56
1741711896.8063626,-0.522404,0.847168,0.147193,-0.175,-0.0875,0.5337500000000001
1741711896.809023,-0.52033,0.851804,0.152561,-0.28875,-0.16625,0.6212500000000001
1741711896.81219,-0.524844,0.853268,0.1468269999999999,-0.37625,-0.21875,0.6125
1741711896.8154328,-0.524783,0.855891,0.151341,-0.32375,-0.0525,0.6212500000000001
1741711896.8182669,-0.5219159999999999,0.853939,0.153232,-0.2275,-0.035,0.5775
1741711896.820617,-0.519842,0.8544269999999999,0.152561,-0.1925,0.0175,0.5337500000000001
1741711896.822993,-0.523258,0.849608,0.146095,-0.0875,0.00875,0.56
1741711896.82532,-0.521489,0.852109,0.15128,-0.30625,-0.04375,0.55125
1741711896.8275638,-0.523685,0.849303,0.149938,-0.28875,-0.20125,0.49875
1741711896.8298042,-0.524356,0.857721,0.152622,-0.28,-0.105,0.49
1741711896.8322008,-0.528809,0.855769,0.1548179999999999,-0.28875,-0.16625,0.5425000000000001
1741711896.8353512,-0.52216,0.854488,0.149145,-0.315,0.035,0.6825000000000001
1741711896.8381517,-0.523075,0.852719,0.149389,-0.21,-0.1225,0.58625
1741711896.8404891,-0.522709,0.850706,0.151646,-0.14875,-0.09625,0.5775
1741711896.8428288,-0.519964,0.852048,0.153659,-0.32375,-0.035,0.56
1741711896.8451738,-0.526003,0.851804,0.151097,-0.32375,-0.04375,0.6562500000000001
1741711896.8474357,-0.5246,0.8529019999999999,0.152439,-0.20125,-0.14875,0.5162500000000001
1741711896.8496535,-0.521062,0.855464,0.1489619999999999,-0.32375,-0.04375,0.49
1741711896.851937,-0.5210009999999999,0.852719,0.155489,-0.25375,0.00875,0.69125
1741711896.855306,-0.521184,0.849425,0.150121,-0.0175,0.0525,0.58625
1741711896.8587155,-0.521428,0.8477169999999999,0.150426,-0.13125,-0.105,0.5337500000000001
1741711896.8616035,-0.522404,0.851926,0.150426,-0.315,-0.07,0.6562500000000001
1741711896.8643403,-0.526491,0.8541219999999999,0.149206,-0.245,-0.20125,0.5687500000000001
1741711896.867049,-0.522953,0.85339,0.157441,-0.25375,-0.105,0.60375
1741711896.869648,-0.529236,0.8532069999999999,0.149694,-0.105,-0.0175,0.55125
1741711896.872215,-0.519415,0.850096,0.1520729999999999,-0.11375,-0.04375,0.6212500000000001
1741711896.8754032,-0.525027,0.848144,0.15189,-0.0525,-0.11375,0.48125
1741711896.878684,-0.519049,0.8513769999999999,0.152195,-0.1925,-0.13125,0.6475000000000001
1741711896.8814538,-0.523807,0.851255,0.150975,-0.28,-0.14,0.48125
1741711896.8842068,-0.523197,0.851255,0.149572,-0.2275,-0.07875,0.49
1741711896.886964,-0.526613,0.8532069999999999,0.14945,-0.14875,0.0175,0.455
1741711896.889698,-0.523319,0.853329,0.1545129999999999,-0.245,-0.07875,0.5950000000000001
1741711896.8922598,-0.526369,0.84973,0.146705,-0.14,0.06125,0.63875
1741711896.8950825,-0.524966,0.8477169999999999,0.147803,-0.21875,-0.13125,0.7262500000000001
1741711896.8981268,-0.5173409999999999,0.853451,0.152317,-0.315,-0.105,0.5687500000000001
1741711896.901042,-0.5237459999999999,0.8519869999999999,0.149023,-0.21875,-0.09625,0.46375
1741711896.903856,-0.525149,0.850645,0.151768,-0.315,0.0175,0.525
1741711896.9066083,-0.520513,0.854305,0.154696,-0.23625,-0.0175,0.7087500000000001
1741711896.9092238,-0.521123,0.849669,0.151707,-0.14875,-0.07875,0.525
1741711896.9118288,-0.522099,0.850401,0.1525,-0.245,-0.13125,0.56
1741711896.914827,-0.5231359999999999,0.854,0.152866,-0.21,-0.14,0.49
1741711896.9182537,-0.525515,0.852536,0.151524,-0.28875,-0.1575,0.5687500000000001
1741711896.9215,-0.525881,0.854305,0.151463,-0.21875,-2.2225,0.6212500000000001
1741711896.9242356,-0.525881,0.853634,0.148718,-0.14,-0.1575,0.56
1741711896.927124,-0.522465,0.851316,0.149389,-0.2625,-0.1225,0.5337500000000001
1741711896.929754,-0.525515,0.84851,0.148901,-0.18375,-0.06125,0.5162500000000001
1741711896.9323375,-0.52094,0.852475,0.152622,-0.1575,-0.035,0.665
1741711896.9350438,-0.5231359999999999,0.8513769999999999,0.151646,-0.20125,-0.13125,0.5162500000000001
1741711896.938823,-0.52277,0.853451,0.153232,-0.28,-0.1225,0.56
1741711896.94215,-0.522709,0.854671,0.151646,-0.21,-0.14875,0.44625
1741711896.9448931,-0.528199,0.852658,0.151707,-0.07,0.035,0.56
1741711896.9476404,-0.519293,0.851255,0.146949,-0.245,-0.07875,0.5075000000000001
1741711896.9503646,-0.520818,0.851743,0.149694,-0.35875,-0.23625,0.525
1741711896.9530978,-0.51911,0.850096,0.15433,-0.35,-0.07,0.6825000000000001
1741711896.9558358,-0.522404,0.854671,0.150975,-0.18375,-0.07875,0.58625
1741711896.9587336,-0.527955,0.8553419999999999,0.152256,-0.30625,-0.09625,0.6300000000000001
1741711896.962268,-0.523563,0.853451,0.152561,-0.14,0.0175,0.42
1741711896.9660037,-0.520757,0.852109,0.14884,-0.21,-0.00875,0.5162500000000001
1741711896.96883,-0.521977,0.855525,0.149816,-0.35,-0.1225,0.525
1741711896.9715805,-0.523502,0.8550369999999999,0.152744,-0.21875,-0.1575,0.455
1741711896.974323,-0.519415,0.8547319999999999,0.156709,-0.11375,-0.09625,0.5950000000000001
1741711896.9769075,-0.5206959999999999,0.852536,0.1523779999999999,-0.1575,-0.105,0.49875
1741711896.9796224,-0.525454,0.85156,0.1539029999999999,-0.18375,-0.13125,0.455
1741711896.9828775,-0.519903,0.851926,0.15494,-0.315,-0.105,0.56
1741711896.9864173,-0.522099,0.852109,0.151524,-0.23625,-0.13125,0.63875
1741711896.9892263,-0.524844,0.85278,0.151463,-0.2275,-0.21875,0.58625
1741711896.9920027,-0.523624,0.85461,0.1542079999999999,-0.25375,-0.105,0.525
1741711896.9947453,-0.525881,0.852048,0.150304,-0.23625,-0.04375,0.56
1741711896.9976008,-0.521855,0.850035,0.149938,-0.245,-0.11375,0.5950000000000001
1741711897.0002766,-0.527406,0.851255,0.149206,-0.23625,-0.06125,0.49
1741711897.0030148,-0.525149,0.853939,0.151768,-0.21,-0.07875,0.49
1741711897.0067012,-0.521733,0.853756,0.153415,-0.1575,-0.2275,0.41125
1741711897.0100057,-0.525759,0.853085,0.149389,-0.315,-0.07,0.5775
1741711897.012874,-0.52521,0.85461,0.155306,-0.2275,-0.1575,0.58625
1741711897.0159876,-0.520452,0.854305,0.150365,-0.21875,-0.04375,0.5687500000000001
1741711897.0199747,-0.523685,0.854854,0.152317,-0.2275,-0.1925,0.49
1741711897.0235646,-0.520147,0.852414,0.157746,-0.21875,-0.035,0.7612500000000001
1741711897.0273557,-0.523868,0.851133,0.152134,-0.14875,-2.23125,0.46375
1741711897.0308087,-0.523075,0.852414,0.150914,-0.23625,-0.16625,0.6562500000000001
1741711897.0338328,-0.520452,0.854,0.152744,-0.20125,-0.035,0.4725
1741711897.0367458,-0.521977,0.85461,0.145363,-0.14,0.0,0.5425000000000001
1741711897.0400407,-0.526491,0.853268,0.149938,-0.20125,-0.105,0.6825000000000001
1741711897.0429018,-0.518317,0.854183,0.153415,-0.35,-0.14,0.74375
1741711897.0457306,-0.522465,0.855769,0.149999,-0.25375,-0.175,0.56
1741711897.0487473,-0.525149,0.856501,0.152195,-0.175,-0.00875,0.5950000000000001
1741711897.052143,-0.524844,0.8519869999999999,0.151524,-0.16625,-0.07875,0.5687500000000001
1741711897.0551336,-0.5197809999999999,0.8535119999999999,0.153232,-0.315,-0.02625,0.6825000000000001
1741711897.0580633,-0.52643,0.852353,0.148718,-0.27125,-0.13125,0.525
1741711897.0609813,-0.522404,0.85339,0.155855,-0.35,-0.175,0.5425000000000001
1741711897.0639155,-0.525759,0.852536,0.1532929999999999,-0.14,0.06125,0.74375
1741711897.0668695,-0.523502,0.851011,0.148596,-0.18375,-0.04375,0.56
1741711897.0699394,-0.525393,0.849303,0.1462169999999999,-0.39375,-0.13125,0.39375
1741711897.073063,-0.5219159999999999,0.849669,0.149206,-0.25375,-0.06125,0.60375
1741711897.076399,-0.528382,0.853146,0.152439,-0.18375,-0.07875,0.58625
1741711897.0794709,-0.527528,0.851621,0.154757,-0.28875,-0.06125,0.74375
1741711897.082569,-0.521977,0.8516819999999999,0.151341,-0.25375,-0.06125,0.49
1741711897.085369,-0.525149,0.85217,0.15006,-0.25375,-0.00875,0.35875
1741711897.0881524,-0.521184,0.8529019999999999,0.15616,-0.20125,-0.16625,0.665
1741711897.090899,-0.52765,0.8525969999999999,0.150426,-0.28875,-0.11375,0.60375
1741711897.0947273,-0.522099,0.853268,0.153049,-0.21875,-0.2275,0.5425000000000001
1741711897.09829,-0.524356,0.855159,0.156526,-0.20125,-0.06125,0.385
1741711897.1013706,-0.525149,0.849303,0.149084,-0.14,-0.04375,0.60375
1741711897.1044595,-0.525881,0.8513769999999999,0.1532929999999999,-0.35875,-0.1225,0.5075000000000001
1741711897.1073327,-0.5167309999999999,0.8525969999999999,0.150487,-0.41125,0.035,0.49875
1741711897.110476,-0.523502,0.851621,0.151646,-0.32375,-0.0175,0.455
1741711897.1136336,-0.520513,0.854793,0.157075,-0.21875,-0.105,0.6300000000000001
1741711897.117634,-0.5197809999999999,0.85278,0.1535979999999999,-0.21,-0.0175,0.56
1741711897.120917,-0.524234,0.852719,0.149389,-0.175,-0.07,0.6300000000000001
1741711897.1244135,-0.518988,0.852353,0.153415,-0.25375,-0.16625,0.48125
1741711897.1277616,-0.518927,0.852414,0.154696,-0.3675,0.0,0.56
1741711897.130562,-0.52399,0.851316,0.15128,-0.3325,-0.07875,0.665
1741711897.1333606,-0.524539,0.850828,0.148718,-0.245,-0.04375,0.58625
1741711897.1362598,-0.522343,0.8535119999999999,0.156953,-0.30625,-0.06125,0.5775
1741711897.1393015,-0.520208,0.854,0.150426,-0.28,-0.02625,0.63875
1741711897.1424687,-0.524722,0.854183,0.151524,-0.28,-0.14875,0.6475000000000001
1741711897.1452012,-0.523319,0.853939,0.154147,-0.14875,-0.14875,0.55125
1741711897.1480536,-0.520879,0.852719,0.1526829999999999,-0.30625,-0.09625,0.58625
1741711897.1507552,-0.523563,0.85461,0.148901,-0.18375,-0.14,0.5425000000000001
1741711897.153176,-0.5237459999999999,0.853878,0.149572,-0.28,-0.11375,0.6212500000000001
1741711897.1557715,-0.524295,0.850523,0.147559,-0.21,-0.09625,0.5950000000000001
1741711897.1587286,-0.526796,0.8529019999999999,0.14945,-0.13125,0.07,0.56
1741711897.1620538,-0.5231359999999999,0.851499,0.149999,-0.21875,-0.11375,0.5950000000000001
1741711897.1648488,-0.524783,0.8553419999999999,0.151463,-0.0875,-0.1575,0.4725
1741711897.167622,-0.521977,0.854793,0.152561,-0.25375,-0.0875,0.5425000000000001
1741711897.1704197,-0.522892,0.856806,0.1525,-0.27125,-0.035,0.6562500000000001
1741711897.1730938,-0.520818,0.853146,0.153415,-0.28875,-0.1575,0.6212500000000001
1741711897.1757417,-0.523868,0.850035,0.148901,-0.28875,-2.2225,0.58625
1741711897.1787157,-0.522282,0.8529019999999999,0.150853,-0.315,-0.14,0.5950000000000001
1741711897.1818676,-0.519232,0.854183,0.153049,-0.28875,-0.11375,0.5425000000000001
1741711897.1849048,-0.520147,0.85217,0.154391,-0.245,-0.04375,0.7262500000000001
1741711897.1875594,-0.5194759999999999,0.853756,0.153537,-0.1225,-0.07875,0.56
1741711897.1904318,-0.520025,0.851011,0.155062,-0.18375,-0.04375,0.56
1741711897.1929576,-0.523014,0.8498519999999999,0.149816,-0.21875,-0.0175,0.6562500000000001
1741711897.1956277,-0.520574,0.850035,0.151097,-0.2275,-0.105,0.60375
1741711897.1986358,-0.521733,0.854549,0.149694,-0.21,-0.09625,0.55125
1741711897.2019508,-0.52399,0.855586,0.151585,-0.245,-0.16625,0.6125
1741711897.2050235,-0.522282,0.8538169999999999,0.151158,-0.13125,-0.06125,0.49875
1741711897.2077816,-0.5185609999999999,0.85339,0.151707,-0.18375,-0.06125,0.5950000000000001
1741711897.210675,-0.519659,0.852414,0.155062,-0.02625,-0.07,0.5775
1741711897.2133634,-0.52399,0.8550369999999999,0.151402,-0.315,-0.07,0.63875
1741711897.2160137,-0.524844,0.855159,0.151463,-0.16625,-0.13125,0.60375
1741711897.218948,-0.525576,0.854671,0.15006,-0.14,-0.00875,0.525
1741711897.222074,-0.522038,0.854061,0.151341,-0.28,-0.04375,0.665
1741711897.2252972,-0.524417,0.852841,0.152805,-0.32375,-0.07,0.5337500000000001
1741711897.2281363,-0.522282,0.851133,0.152622,-0.25375,-0.0175,0.5775
1741711897.231052,-0.5225259999999999,0.8519869999999999,0.15067,-0.2975,-0.13125,0.5687500000000001
1741711897.2336783,-0.525576,0.854793,0.1489619999999999,-0.4025,-0.0875,0.6562500000000001
1741711897.2362146,-0.522648,0.8519869999999999,0.152134,-0.20125,0.04375,0.5162500000000001
1741711897.2391264,-0.52155,0.8544269999999999,0.154635,-0.11375,-0.13125,0.56
1741711897.2422616,-0.520879,0.851804,0.1523779999999999,-0.3675,-0.0875,0.5337500000000001
1741711897.2455833,-0.527955,0.852048,0.152317,-0.1575,-0.18375,0.6300000000000001
1741711897.2483425,-0.525088,0.8513769999999999,0.150731,-0.27125,-0.11375,0.44625
1741711897.2511015,-0.520574,0.85217,0.153415,-0.315,-0.21,0.55125
1741711897.253714,-0.523807,0.853756,0.15189,-0.1925,-0.0525,0.46375
1741711897.2562797,-0.526247,0.852658,0.1486569999999999,-0.25375,-0.18375,0.48125
1741711897.2590942,-0.522099,0.856806,0.153537,-0.28875,-0.06125,0.55125
1741711897.262489,-0.519842,0.856196,0.150304,-0.2275,-0.0525,0.60375
1741711897.265604,-0.522343,0.851255,0.153049,-0.245,-0.0525,0.525
1741711897.268343,-0.523502,0.8507669999999999,0.1520729999999999,-0.30625,-0.14,0.5687500000000001
1741711897.2712016,-0.523319,0.853085,0.148413,-0.14875,-0.105,0.7087500000000001
1741711897.2738965,-0.523319,0.853329,0.152927,-0.1225,-0.06125,0.5775
1741711897.2765608,-0.5194759999999999,0.853878,0.15128,-0.25375,-0.1575,0.5337500000000001
1741711897.2795162,-0.5216109999999999,0.8547319999999999,0.154147,-0.27125,-0.09625,0.6125
1741711897.2827902,-0.52277,0.85095,0.148535,-0.28,-0.14,0.5687500000000001
1741711897.2858405,-0.519598,0.8513769999999999,0.141215,-0.11375,-0.16625,0.49
1741711897.288582,-0.522892,0.8504619999999999,0.151707,-0.1575,-0.21875,0.56
1741711897.2913125,-0.520208,0.8553419999999999,0.153476,-0.105,-0.06125,0.665
1741711897.2941031,-0.522465,0.854244,0.153842,-0.28,-0.02625,0.49
1741711897.2968352,-0.528077,0.85339,0.152317,-0.14,-0.2275,0.63875
1741711897.299431,-0.52033,0.8532069999999999,0.154452,-0.28875,-0.07875,0.5687500000000001
1741711897.3032708,-0.5234409999999999,0.852109,0.152317,-0.09625,-0.07,0.6212500000000001
1741711897.3064587,-0.522465,0.854549,0.152561,-0.2975,-0.1925,0.42
1741711897.3092062,-0.518988,0.853268,0.150121,-0.25375,-0.1575,0.6212500000000001
1741711897.31194,-0.526369,0.852353,0.151585,-0.2275,-0.035,0.46375
1741711897.314694,-0.518439,0.8513769999999999,0.150243,-0.1225,-0.0175,0.6125
1741711897.317294,-0.524905,0.85156,0.146705,-0.21875,-0.0525,0.60375
1741711897.319874,-0.5213059999999999,0.854305,0.1483519999999999,-0.23625,-0.16625,0.6475000000000001
1741711897.3226843,-0.521184,0.854488,0.1542079999999999,-0.3325,-0.1225,0.6125
1741711897.3261926,-0.522648,0.8553419999999999,0.150975,-0.315,-0.06125,0.5775
1741711897.3292987,-0.524295,0.8529019999999999,0.1529879999999999,-0.27125,-0.09625,0.58625
1741711897.3320117,-0.524905,0.852231,0.151097,-0.1575,-0.14,0.55125
1741711897.3347073,-0.5197809999999999,0.852231,0.152744,-0.32375,0.0875,0.7262500000000001
1741711897.3373785,-0.522282,0.850645,0.154696,-0.1225,-0.13125,0.41125
1741711897.3400793,-0.5182559999999999,0.852414,0.1542079999999999,-0.28,-0.035,0.5775
1741711897.342672,-0.523197,0.849913,0.146095,-0.3325,-0.105,0.5775
1741711897.3455138,-0.523258,0.852963,0.142313,-0.2275,-0.0875,0.5425000000000001
1741711897.348638,-0.524295,0.852658,0.152744,-0.20125,0.035,0.5687500000000001
1741711897.3516953,-0.519964,0.854488,0.152439,-0.2275,-0.02625,0.48125
1741711897.3544476,-0.52643,0.852048,0.148169,-0.21875,-0.21,0.58625
1741711897.3571613,-0.521123,0.85156,0.152012,-0.11375,-0.09625,0.525
1741711897.359857,-0.5216109999999999,0.851865,0.152195,-0.13125,-0.02625,0.55125
1741711897.3624325,-0.51972,0.851194,0.155733,-0.23625,-0.07,0.55125
1741711897.3651197,-0.528443,0.853756,0.149328,-0.3325,-0.07,0.6212500000000001
1741711897.3684776,-0.525149,0.855586,0.152744,-0.245,0.035,0.5687500000000001
1741711897.3718166,-0.523563,0.853695,0.149694,-0.21875,-0.0175,0.58625
1741711897.3746057,-0.526674,0.8519869999999999,0.151524,-0.1575,-0.0875,0.49
1741711897.37746,-0.521428,0.85339,0.150304,-0.245,-0.14,0.5337500000000001
1741711897.3802056,-0.52155,0.8535119999999999,0.1525,-0.1225,-0.09625,0.49
1741711897.3828142,-0.520208,0.854183,0.15372,-0.175,-0.07,0.5425000000000001
1741711897.3853831,-0.52399,0.8522919999999999,0.153537,-0.315,0.00875,0.56
1741711897.3881874,-0.520208,0.8495469999999999,0.150243,-0.25375,0.06125,0.58625
1741711897.3916757,-0.522709,0.853695,0.149633,-0.28,-0.14,0.60375
1741711897.3948894,-0.52399,0.8529019999999999,0.151707,-0.18375,-0.13125,0.5950000000000001
1741711897.397651,-0.521855,0.85156,0.151402,-0.41125,-0.16625,0.6300000000000001
1741711897.4005346,-0.523319,0.852963,0.151829,-0.23625,-0.14875,0.55125
1741711897.4031725,-0.523624,0.852658,0.147315,-0.3675,-0.1575,0.48125
1741711897.4057512,-0.523868,0.851499,0.149328,-0.28875,-0.06125,0.60375
1741711897.4085543,-0.523868,0.848205,0.153842,-0.385,-0.0875,0.5950000000000001
1741711897.4119554,-0.523868,0.8529019999999999,0.152195,-0.16625,-0.16625,0.5425000000000001
