Timestamp,Accel X,Accel Y,Accel Z,Gyro X,Gyro Y,Gyro Z
1741711704.0622804,-0.509167,0.858209,0.169092,-0.4725,-0.2275,0.58625
1741711704.0657315,-0.506178,0.859734,0.1797669999999999,-0.55125,-0.245,0.5425000000000001
1741711704.068594,-0.511119,0.8565619999999999,0.175558,-0.2625,-0.07875,0.5775
1741711704.0713377,-0.504775,0.857904,0.174948,-0.25375,-0.18375,0.7350000000000001
1741711704.073979,-0.505873,0.8562569999999999,0.17202,-0.39375,-0.14875,0.69125
1741711704.0764625,-0.505751,0.85278,0.171654,-0.1575,-0.02625,0.6737500000000001
1741711704.078857,-0.50691,0.8565619999999999,0.174155,-0.09625,-0.09625,0.6737500000000001
1741711704.0823305,-0.50813,0.855708,0.180438,0.0175,0.0175,0.8575
1741711704.085413,-0.504958,0.854244,0.171532,0.0875,0.09625,0.7000000000000001
1741711704.088573,-0.507398,0.854305,0.170434,0.14,-0.11375,0.58625
1741711704.0910275,-0.506361,0.860588,0.171288,0.0175,0.07,0.6475000000000001
1741711704.0936563,-0.512339,0.856379,0.17019,-0.13125,-0.07875,0.63875
1741711704.0964634,-0.507947,0.8599169999999999,0.1609789999999999,-0.07875,-0.0525,0.8487500000000001
1741711704.0988567,-0.510936,0.858636,0.171654,0.02625,-0.04375,0.6825000000000001
1741711704.1011918,-0.507276,0.861869,0.168055,-0.105,0.02625,0.77
1741711704.1055512,-0.507337,0.860283,0.168421,-0.07,-0.175,0.5425000000000001
1741711704.1087675,-0.510082,0.858331,0.168909,-0.21875,-0.175,0.7262500000000001
1741711704.111653,-0.505873,0.861015,0.167506,-0.20125,-0.13125,0.6125
1741711704.1143804,-0.508618,0.860771,0.168787,-0.35,-0.28875,0.60375
1741711704.116957,-0.511424,0.859795,0.166408,-0.39375,-0.25375,0.55125
1741711704.1194992,-0.507459,0.856684,0.17263,-0.4375,-0.385,0.5162500000000001
1741711704.1235547,-0.505873,0.853573,0.17019,-0.6125,-0.27125,0.5337500000000001
1741711704.1269176,-0.506361,0.854915,0.166713,-0.6125,-0.25375,0.48125
1741711704.1301758,-0.504165,0.856684,0.171898,-0.58625,-0.4375,0.32375
1741711704.1328523,-0.508313,0.854366,0.1708,-0.41125,-0.23625,0.4025
1741711704.1352508,-0.509472,0.855403,0.1723859999999999,-0.44625,-0.14875,0.5162500000000001
1741711704.137937,-0.510021,0.8590019999999999,0.173972,-0.42,-0.1925,0.6125
1741711704.1405425,-0.508374,0.857904,0.17507,-0.42875,-0.035,0.5075000000000001
1741711704.1439104,-0.508984,0.8562569999999999,0.174216,-0.21,-0.0875,0.41125
1741711704.1473577,-0.508313,0.854061,0.172874,-0.2275,-0.1225,0.5950000000000001
1741711704.150072,-0.508984,0.856074,0.174826,-0.13125,-0.035,0.6825000000000001
1741711704.152419,-0.51179,0.856928,0.169824,-0.09625,-0.06125,0.6212500000000001
1741711704.1548653,-0.508557,0.854671,0.169214,0.0,-0.14875,0.525
1741711704.1570618,-0.510631,0.858636,0.186294,-0.105,-0.06125,0.6125
1741711704.159247,-0.507093,0.860344,0.175009,0.0,0.035,0.6212500000000001
1741711704.1625493,-0.509167,0.859429,0.172264,-0.06125,-0.1575,0.69125
1741711704.1652603,-0.506788,0.8577819999999999,0.170373,-0.09625,-0.00875,0.91875
1741711704.1676564,-0.508313,0.860039,0.171959,0.02625,-0.0875,0.7175
1741711704.1700416,-0.510631,0.858514,0.166408,-0.1575,-0.1225,0.6562500000000001
1741711704.172428,-0.509045,0.8614419999999999,0.175741,-0.175,-0.06125,0.7350000000000001
1741711704.174693,-0.506361,0.859673,0.169275,-0.13125,-0.1575,0.805
1741711704.1769102,-0.510082,0.859856,0.168848,-0.1225,-0.18375,0.77875
1741711704.1792047,-0.509228,0.859978,0.166896,-0.21,-0.18375,0.7350000000000001
1741711704.1826737,-0.505873,0.858209,0.167506,-0.41125,-0.175,0.5687500000000001
1741711704.1853223,-0.504653,0.857111,0.170739,-0.46375,-0.2625,0.7087500000000001
1741711704.1875613,-0.506666,0.855098,0.1705559999999999,-0.21,-0.2975,0.5687500000000001
1741711704.189745,-0.502457,0.8522919999999999,0.172813,-0.42,-0.32375,0.6475000000000001
1741711704.1918993,-0.504592,0.855708,0.168787,-0.46375,-0.23625,0.5425000000000001
1741711704.1945004,-0.507154,0.854793,0.165432,-0.6125,-0.21875,0.49
1741711704.196857,-0.509106,0.8550369999999999,0.1643949999999999,-0.5337500000000001,-0.2275,0.44625
1741711704.1993952,-0.508496,0.856379,0.174094,-0.39375,-0.28875,0.49
1741711704.2025802,-0.507703,0.854976,0.17385,-0.35,-0.32375,0.48125
1741711704.2050197,-0.50447,0.852841,0.168543,-0.4375,-0.1925,0.5075000000000001
1741711704.2075562,-0.505568,0.852658,0.174216,-0.42875,-0.1925,0.55125
1741711704.2102213,-0.504958,0.856623,0.175192,-0.385,-0.1925,0.4025
1741711704.2127216,-0.511119,0.857294,0.174887,-0.3675,-0.14,0.34125
1741711704.2153964,-0.510875,0.85644,0.1705559999999999,-0.245,-0.035,0.525
1741711704.2186348,-0.51057,0.856745,0.176046,-0.105,-0.0875,0.60375
1741711704.2216694,-0.50996,0.85949,0.173545,-0.20125,-0.11375,0.5950000000000001
1741711704.2245677,-0.512217,0.8626619999999999,0.175314,-0.09625,-0.11375,0.60375
1741711704.2275028,-0.511546,0.85827,0.171288,-0.035,-0.02625,0.6125
1741711704.230127,-0.509777,0.856684,0.16897,0.0175,0.035,0.83125
1741711704.2327356,-0.509167,0.8605269999999999,0.169275,-0.035,-0.04375,0.7525000000000001
1741711704.2353656,-0.5124,0.858758,0.168238,-0.1575,-0.14875,0.7175
1741711704.2381008,-0.5130709999999999,0.861564,0.172752,-0.00875,-0.09625,0.7175
1741711704.241226,-0.512278,0.858941,0.172813,-0.035,-0.07,0.91
1741711704.244793,-0.50691,0.85583,0.170434,-0.0175,-0.07875,0.9275
1741711704.2476797,-0.505202,0.857904,0.1671399999999999,-0.28,-0.16625,0.805
1741711704.2505257,-0.503738,0.855525,0.168177,-0.25375,-0.18375,0.69125
1741711704.2532785,-0.509289,0.85888,0.166103,-0.245,-0.0875,0.6300000000000001
1741711704.255847,-0.500932,0.8571719999999999,0.170068,-0.28875,-0.16625,0.83125
1741711704.2584052,-0.508435,0.854061,0.1711659999999999,-0.37625,-0.21875,0.5950000000000001
1741711704.2620184,-0.50386,0.855464,0.168665,-0.28875,-0.09625,0.48125
1741711704.264846,-0.503128,0.8510719999999999,0.172508,-0.455,-0.28,0.525
1741711704.267481,-0.503555,0.856623,0.173179,-0.42875,-0.35,0.4375
1741711704.2702096,-0.501481,0.853085,0.169092,-0.5075000000000001,-0.16625,0.42875
1741711704.273037,-0.506605,0.856745,0.169763,-0.245,-0.21875,0.4025
1741711704.2755826,-0.506605,0.859551,0.175375,-0.46375,-0.35875,0.315
1741711704.278095,-0.509045,0.8544269999999999,0.171898,-0.35,-0.27125,0.34125
1741711704.2807436,-0.510814,0.85461,0.182817,-0.385,-0.21,0.3675
1741711704.2842577,-0.507642,0.859978,0.173179,-0.315,-0.18375,0.5337500000000001
1741711704.287099,-0.512827,0.860039,0.171044,-0.09625,-0.245,0.34125
1741711704.289741,-0.511119,0.857965,0.167323,-0.21,-0.2975,0.4025
1741711704.2925231,-0.512217,0.85766,0.186965,-0.25375,-0.20125,0.4025
1741711704.2952282,-0.511912,0.85888,0.17141,-0.18375,-0.21,0.7262500000000001
1741711704.297746,-0.510875,0.859673,0.171532,-0.14,-0.21875,0.6562500000000001
1741711704.3002174,-0.5176459999999999,0.8583919999999999,0.167872,-0.245,-0.1225,0.6475000000000001
1741711704.3029947,-0.512949,0.86315,0.171837,-0.11375,-0.1225,0.7962500000000001
1741711704.3060818,-0.501664,0.858148,0.175314,-0.105,-0.0175,0.8750000000000001
1741711704.3092315,-0.508557,0.8590019999999999,0.17019,-0.11375,-0.0525,0.7525000000000001
1741711704.31202,-0.506849,0.860649,0.172447,-0.07,-2.1700000000000004,0.91
1741711704.314902,-0.512095,0.856318,0.167872,-0.04375,-0.14875,0.8225000000000001
1741711704.31743,-0.516243,0.857599,0.182512,-0.13125,-0.07,0.8225000000000001
1741711704.319923,-0.506239,0.856074,0.16897,-0.14875,-0.04375,0.7962500000000001
1741711704.3223488,-0.500017,0.857721,0.171837,-0.105,-0.04375,0.805
1741711704.3253634,-0.504897,0.85705,0.167933,-0.105,-0.13125,0.6212500000000001
1741711704.3288305,-0.50508,0.855525,0.171105,-0.1925,-0.14875,0.5687500000000001
1741711704.3314147,-0.505324,0.854671,0.169031,-0.27125,-0.27125,0.5950000000000001
1741711704.334206,-0.505385,0.8519869999999999,0.173789,-0.28,-0.1575,0.5425000000000001
1741711704.337117,-0.504653,0.856379,0.165676,-0.37625,-0.175,0.58625
1741711704.3396342,-0.506727,0.8556469999999999,0.166469,-0.4725,-0.1925,0.37625
1741711704.3420827,-0.502701,0.857355,0.17385,-0.35875,-0.27125,0.35875
1741711704.3446848,-0.511912,0.855464,0.17141,-0.4025,-0.1575,0.48125
1741711704.3478448,-0.508191,0.858453,0.17324,-0.30625,-0.245,0.4725
1741711704.3507302,-0.505873,0.856745,0.175924,-0.41125,-0.21875,0.49
1741711704.3533385,-0.504653,0.859795,0.171044,-0.42875,-0.13125,0.4375
1741711704.3559728,-0.509655,0.8571719999999999,0.173484,-0.34125,-0.245,0.3675
1741711704.3583813,-0.513193,0.861808,0.171593,-0.32375,-0.14875,0.49875
1741711704.3609838,-0.511912,0.857843,0.1758019999999999,-0.2275,-0.1225,0.5425000000000001
1741711704.363482,-0.511302,0.861625,0.170922,-0.245,-0.2975,0.7000000000000001
1741711704.3662405,-0.512827,0.86315,0.172752,-0.2275,-0.18375,0.60375
1741711704.3693042,-0.5124609999999999,0.860771,0.171654,-0.09625,-0.14875,0.58625
1741711704.372224,-0.509106,0.8586969999999999,0.170617,-0.105,-0.1925,0.56
1741711704.3748343,-0.509533,0.857904,0.17324,-0.28,-0.14,0.7962500000000001
1741711704.3774314,-0.511363,0.856684,0.1662249999999999,-0.21,-0.07,0.7525000000000001
1741711704.380106,-0.507276,0.858575,0.1723859999999999,-0.07875,-0.27125,0.7175
1741711704.3823645,-0.508923,0.85827,0.1665299999999999,-0.175,-0.1225,0.7962500000000001
1741711704.384839,-0.508923,0.8565619999999999,0.17446,-0.245,-0.1925,0.805
1741711704.387219,-0.507337,0.853695,0.1671399999999999,-0.09625,-0.0525,0.7612500000000001
1741711704.3908353,-0.506483,0.855281,0.171044,-0.14875,-0.105,0.74375
1741711704.3935452,-0.505812,0.858514,0.156343,-0.2975,-0.0875,0.5775
1741711704.39621,-0.5063,0.85583,0.167384,-0.28,-0.09625,0.6562500000000001
1741711704.3988364,-0.506361,0.8568669999999999,0.172142,-0.28875,-0.06125,0.56
1741711704.401414,-0.503921,0.8544269999999999,0.170617,-0.28,-0.18375,0.6825000000000001
1741711704.4040298,-0.504226,0.851316,0.166164,-0.28875,-0.0875,0.6125
1741711704.4063945,-0.506056,0.853634,0.16836,-0.27125,-0.18375,0.5687500000000001
1741711704.4088297,-0.504836,0.853024,0.167567,-0.35,-0.11375,0.4725
1741711704.4119606,-0.505812,0.853878,0.1674449999999999,-0.28875,-0.30625,0.48125
1741711704.4153976,-0.505751,0.8562569999999999,0.1720809999999999,-0.3325,-0.2625,0.4025
1741711704.417915,-0.510936,0.859551,0.167994,-0.32375,-0.13125,0.4725
1741711704.420397,-0.507093,0.857904,0.1708,-0.49,-0.21875,0.34125
1741711704.4231026,-0.51362,0.8593069999999999,0.168909,-0.2975,-0.16625,0.44625
1741711704.426256,-0.512888,0.8583919999999999,0.1726909999999999,-0.2975,-0.2275,0.63875
1741711704.4290156,-0.513925,0.859673,0.169336,-0.315,-0.2275,0.55125
1741711704.432522,-0.508435,0.860954,0.171715,-0.28,-0.1925,0.5162500000000001
1741711704.434764,-0.508679,0.857904,0.174887,-0.28875,-0.21,0.5775
1741711704.4373128,-0.515633,0.85888,0.168665,-0.39375,-0.25375,0.6212500000000001
1741711704.4400682,-0.511607,0.859063,0.172752,-0.23625,-0.14,0.77
1741711704.4431574,-0.511363,0.861503,0.170739,-0.315,-0.175,0.7612500000000001
1741711704.446008,-0.5145959999999999,0.858026,0.17202,-0.32375,-0.1225,0.6212500000000001
1741711704.4490592,-0.509472,0.85766,0.172325,-0.175,-0.25375,0.7612500000000001
1741711704.4515376,-0.502518,0.856928,0.1726909999999999,-0.28,-0.14875,0.8925000000000001
1741711704.4541469,-0.509289,0.853573,0.171105,-0.23625,-0.14,0.8225000000000001
1741711704.456854,-0.508801,0.85644,0.1699459999999999,-0.28,-0.13125,0.7962500000000001
1741711704.460043,-0.507764,0.856013,0.171593,-0.245,-0.16625,0.69125
1741711704.4628258,-0.503921,0.856684,0.173667,-0.245,-0.1575,0.6212500000000001
1741711704.4661286,-0.504592,0.8553419999999999,0.168665,-0.23625,-0.18375,0.7612500000000001
1741711704.4686666,-0.506483,0.855708,0.169336,-0.21,-0.14875,0.5425000000000001
1741711704.4711676,-0.507154,0.854854,0.173728,-0.13125,-0.07875,0.665
1741711704.473766,-0.506117,0.85278,0.1717759999999999,-0.1225,-0.1225,0.48125
1741711704.4768376,-0.504043,0.850279,0.169519,-0.21875,-0.06125,0.6475000000000001
1741711704.479252,-0.499407,0.8507669999999999,0.169641,-0.28,-0.20125,0.55125
1741711704.4824638,-0.509045,0.857538,0.1729959999999999,-0.315,-0.11375,0.49
1741711704.4849446,-0.512888,0.862296,0.1711659999999999,-0.23625,-0.20125,0.35875
1741711704.4873822,-0.505934,0.860405,0.183976,-0.21875,-0.09625,0.455
1741711704.4898045,-0.509716,0.864553,0.1729959999999999,-0.28875,-0.34125,0.32375
1741711704.493195,-0.509655,0.8577819999999999,0.1711659999999999,-0.315,-0.07875,0.5425000000000001
1741711704.4960692,-0.507154,0.859551,0.170983,-0.2975,-0.175,0.69125
1741711704.499317,-0.50752,0.857233,0.168238,-0.42875,-0.23625,0.55125
1741711704.5019565,-0.503494,0.86193,0.173118,-0.3675,-0.2975,0.3675
1741711704.504585,-0.51057,0.8632719999999999,0.176839,-0.44625,-0.3325,0.5775
1741711704.5072525,-0.513498,0.8580869999999999,0.170739,-0.2975,-0.2275,0.6737500000000001
1741711704.5098426,-0.512278,0.857904,0.1699459999999999,-0.21,-0.07875,0.6212500000000001
1741711704.5124085,-0.513132,0.859063,0.169336,-0.39375,-0.21,0.6212500000000001
1741711704.515226,-0.505873,0.856318,0.176595,-0.37625,-0.32375,0.5775
1741711704.5180414,-0.51118,0.8538169999999999,0.1708609999999999,-0.1575,-0.1925,0.69125
1741711704.5213046,-0.504836,0.854,0.1708609999999999,-0.32375,-0.18375,0.7087500000000001
1741711704.5237908,-0.507276,0.858575,0.167933,-0.2625,-0.23625,0.6825000000000001
1741711704.5262458,-0.5155109999999999,0.856379,0.170617,-0.21875,-0.1925,0.6125
1741711704.528826,-0.509228,0.85705,0.173484,-0.1225,-0.09625,0.77
1741711704.5317154,-0.511302,0.8593069999999999,0.170922,0.0175,0.0175,0.7525000000000001
1741711704.5343783,-0.505202,0.853329,0.170434,2.135,-0.11375,0.805
1741711704.537699,-0.508435,0.855525,0.171593,-0.04375,0.0,0.58625
1741711704.5408804,-0.503128,0.85461,0.182695,-0.07875,-0.14,0.5950000000000001
1741711704.5443656,-0.508008,0.856318,0.170434,-0.07875,-0.1225,0.6825000000000001
1741711704.54731,-0.509167,0.857721,0.169153,-0.21,-0.21,0.7000000000000001
1741711704.5504687,-0.509716,0.859429,0.163968,-0.14,-0.11375,0.6562500000000001
1741711704.5533357,-0.510021,0.859795,0.1674449999999999,-0.14,-0.30625,0.42875
1741711704.5567126,-0.506361,0.856318,0.167933,-0.2625,-0.245,0.4375
1741711704.5636687,-0.509838,0.860344,0.167323,-0.5775,-0.28875,0.55125
1741711704.5680387,-0.509838,0.858819,0.170617,-0.44625,-0.32375,0.4025
1741711704.5710895,-0.510326,0.859124,0.171654,-0.42875,-0.35,0.5337500000000001
1741711704.5739918,-0.511058,0.85644,0.173057,-0.37625,-0.2625,0.5425000000000001
1741711704.5780456,-0.506666,0.856745,0.172203,-0.41125,-0.28,0.4725
1741711704.5808656,-0.506605,0.858209,0.174216,-0.41125,-0.3675,0.5337500000000001
1741711704.5841184,-0.506788,0.857355,0.172752,-0.3675,-0.18375,0.58625
1741711704.588366,-0.51179,0.8593069999999999,0.173789,-0.1925,-0.175,0.6212500000000001
1741711704.5918431,-0.51057,0.856989,0.173545,-0.14,-0.175,0.6125
1741711704.5947363,-0.508862,0.855159,0.172508,-0.14,-0.16625,0.6475000000000001
1741711704.5976057,-0.506117,0.853939,0.17507,0.00875,0.11375,0.9625
1741711704.6001258,-0.507398,0.856928,0.170007,0.11375,0.04375,0.8400000000000001
1741711704.602778,-0.506788,0.859551,0.167384,-0.11375,-0.0875,0.7525000000000001
1741711704.6051807,-0.510448,0.859734,0.170373,0.00875,-0.105,0.6475000000000001
1741711704.6075804,-0.511363,0.864065,0.172569,0.0525,-0.21875,0.48125
1741711704.6101575,-0.5167309999999999,0.858575,0.171044,0.14875,0.02625,0.77875
1741711704.613232,-0.507703,0.8583919999999999,0.170373,0.06125,0.1225,0.91
1741711704.616259,-0.505507,0.854549,0.16836,0.035,-0.07875,0.7087500000000001
1741711704.6191535,-0.503433,0.853939,0.172142,-0.07875,-0.1225,0.55125
1741711704.621712,-0.510875,0.859185,0.1705559999999999,-0.035,-0.1575,0.56
1741711704.6247723,-0.5136809999999999,0.861015,0.167933,-0.14875,-0.035,0.7262500000000001
1741711704.6272566,-0.510875,0.8611369999999999,0.166042,-0.04375,-0.11375,0.6562500000000001
1741711704.6297026,-0.512156,0.8602219999999999,0.169214,-0.2275,-0.14,0.6125
1741711704.6321104,-0.509899,0.8611369999999999,0.170312,-0.175,-0.0525,0.7262500000000001
1741711704.6348023,-0.500993,0.860161,0.172142,-0.27125,-0.0875,0.665
1741711704.6374872,-0.503372,0.845521,0.168299,-0.39375,-0.27125,0.60375
1741711704.640511,-0.50691,0.855708,0.169702,-0.55125,-0.30625,0.6125
1741711704.643,-0.504958,0.8544269999999999,0.165554,-0.5425000000000001,-0.20125,0.4725
1741711704.6453736,-0.503982,0.8538169999999999,0.168604,-0.5162500000000001,-0.2975,0.41125
1741711704.6477218,-0.511851,0.854549,0.1773269999999999,-0.6475000000000001,-0.32375,0.46375
1741711704.6513824,-0.503616,0.8529019999999999,0.176778,-0.27125,0.0,0.455
1741711704.6544957,-0.509899,0.862235,0.169641,-0.315,-0.4725,0.56
1741711704.6580443,-0.528748,0.846924,0.181231,-0.3325,-0.42875,0.315
1741711704.6605887,-0.5182559999999999,0.858209,0.1942849999999999,-0.09625,0.21,0.69125
1741711704.6630547,-0.497394,0.861198,0.178181,0.0,0.32375,0.88375
1741711704.6655495,-0.4889759999999999,0.862601,0.155733,-0.28,-0.28,0.8487500000000001
1741711704.6680264,-0.491477,0.865529,0.175375,-0.49875,-0.8400000000000001,-0.00875
1741711704.6705122,-0.5367999999999999,0.858819,0.195139,-0.0175,-0.39375,0.315
1741711704.672965,-0.527528,0.850645,0.1782419999999999,0.46375,0.5425000000000001,0.6737500000000001
1741711704.6779675,-0.51484,0.85583,0.1643949999999999,-0.04375,0.035,0.93625
1741711704.6815505,-0.502945,0.859551,0.171105,-0.06125,-0.42875,0.5687500000000001
1741711704.6840863,-0.51911,0.8599169999999999,0.188307,0.23625,-0.21875,0.7612500000000001
1741711704.686685,-0.518927,0.868213,0.178059,0.455,0.3675,1.1025
1741711704.689185,-0.511729,0.866139,0.161528,0.1225,0.25375,1.2075
1741711704.691666,-0.506544,0.872605,0.165188,-0.16625,-0.23625,1.12875
1741711704.694343,-0.500078,0.8590019999999999,0.179279,0.1225,-0.175,0.88375
1741711704.69741,-0.512095,0.850889,0.168055,0.2625,0.28875,0.91
1741711704.700255,-0.498187,0.845521,0.163053,-0.245,-0.1925,0.83125
1741711704.7029605,-0.507398,0.855525,0.167933,-0.37625,-0.23625,0.91875
1741711704.705769,-0.513254,0.860893,0.167689,-0.23625,-0.11375,0.88375
1741711704.7084844,-0.508923,0.8553419999999999,0.160125,-0.02625,-0.1225,0.48125
1741711704.7113116,-0.509777,0.854671,0.158051,-0.27125,-0.175,0.6475000000000001
1741711704.71444,-0.505507,0.852841,0.166591,-0.60375,-0.44625,0.5075000000000001
1741711704.7181096,-0.492514,0.861991,0.178791,-0.315,-0.21875,0.49
1741711704.7225697,-0.507337,0.846009,0.15677,-0.7525000000000001,-0.42,-0.04375
1741711704.725538,-0.510082,0.84851,0.165066,-1.3825,-0.6475000000000001,-0.07875
1741711704.7283518,-0.5139859999999999,0.86071,0.183366,-0.8225000000000001,-0.35875,0.00875
1741711704.7314663,-0.508313,0.862174,0.1788519999999999,-0.25375,-0.1925,0.34125
1741711704.7342992,-0.521855,0.858758,0.159088,-0.3675,-0.34125,-0.07
1741711704.7374952,-0.509838,0.851743,0.177876,-0.4725,-0.25375,0.175
1741711704.742107,-0.504531,0.862235,0.177998,-0.09625,0.21,1.0762500000000002
1741711704.7448032,-0.517768,0.8562569999999999,0.171654,0.09625,-0.39375,0.88375
1741711704.7475147,-0.538752,0.863455,0.181109,0.35,-0.35875,0.7525000000000001
1741711704.7513354,-0.5167309999999999,0.867054,0.193126,1.12875,0.90125,1.3037500000000002
1741711704.756855,-0.496601,0.86071,0.1526829999999999,0.7175,-0.3325,1.54
1741711704.759709,-0.528748,0.854854,0.196847,0.88375,-0.02625,1.5575
1741711704.7622943,-0.51057,0.857416,0.186477,1.37375,0.88375,2.0387500000000003
1741711704.7647457,-0.492697,0.853939,0.154086,1.12875,0.90125,1.995
1741711704.7677913,-0.485072,0.853878,0.154269,0.5337500000000001,-0.2625,1.81125
1741711704.77121,-0.514657,0.865529,0.158356,0.42875,-0.175,1.28625
1741711704.7767704,-0.485377,0.856928,0.164029,-2.1700000000000004,0.16625,0.69125
1741711704.7807834,-0.491294,0.843081,0.148779,-0.8925000000000001,-0.49,0.41125
1741711704.7851458,-0.486109,0.842715,0.158295,-1.505,-0.77875,-0.09625
1741711704.7889495,-0.497516,0.849913,0.1603689999999999,-1.7675,-0.8750000000000001,-0.7612500000000001
1741711704.7925282,-0.506788,0.845704,0.164578,-1.77625,-0.5337500000000001,-0.6300000000000001
1741711704.7954805,-0.500261,0.846131,0.160125,-1.89875,-0.9275,-0.74375
1741711704.7983377,-0.50386,0.859795,0.1794619999999999,-1.54875,-0.98,-0.9975
1741711704.802401,-0.516243,0.863028,0.17568,-1.33875,-0.5687500000000001,-0.6825000000000001
1741711704.8051212,-0.504348,0.855708,0.183549,-1.4087500000000002,-0.7087500000000001,-0.5950000000000001
1741711704.8086033,-0.52338,0.864614,0.186355,-1.04125,-0.4725,-0.14
1741711704.8115215,-0.523868,0.8638819999999999,0.1939799999999999,-0.20125,-0.04375,0.1925
1741711704.8148727,-0.52033,0.860771,0.1711659999999999,-0.04375,-0.06125,0.4025
1741711704.8177905,-0.525759,0.862906,0.19215,0.07875,-0.035,0.665
1741711704.8231173,-0.528077,0.871324,0.1856229999999999,1.12,0.60375,1.7675
1741711704.8258302,-0.524173,0.863699,0.169458,1.54875,0.5337500000000001,1.95125
1741711704.829779,-0.517707,0.864126,0.168482,1.0850000000000002,0.32375,1.9862500000000003
1741711704.8326275,-0.509411,0.866383,0.174582,1.1462500000000002,0.35875,2.0562500000000004
1741711704.8361604,-0.507276,0.868884,0.166774,1.0237500000000002,0.35875,2.0125
1741711704.840341,-0.50447,0.859246,0.1539029999999999,0.42,0.07875,1.7325000000000002
1741711704.8445425,-0.496174,0.850889,0.167994,0.11375,0.105,1.155
1741711704.847552,-0.488244,0.847473,0.146766,-0.175,0.07875,1.1375000000000002
1741711704.8509097,-0.477203,0.841068,0.152866,-0.98,-0.6825000000000001,0.35
1741711704.8559132,-0.4964179999999999,0.846253,0.18483,-1.12,-0.39375,-0.2625
1741711704.8597133,-0.4917209999999999,0.846436,0.149633,-1.4175000000000002,-0.455,-0.42875
1741711704.8636634,-0.508191,0.857721,0.176778,-1.9075,-1.225,-0.7087500000000001
1741711704.8675053,-0.514352,0.856196,0.190076,-1.0762500000000002,-0.28875,-0.6737500000000001
1741711704.870266,-0.503677,0.848266,0.1736059999999999,-1.015,-0.18375,-0.69125
1741711704.874696,-0.507947,0.85766,0.174521,-1.54875,-0.83125,-0.455
1741711704.87865,-0.527589,0.870714,0.1856229999999999,-0.69125,-0.56,-0.385
1741711704.8811495,-0.534177,0.870897,0.180133,-0.4725,-0.35875,0.1575
1741711704.8854492,-0.529968,0.8723,0.179523,-0.0525,0.02625,0.385
1741711704.891107,-0.514718,0.862113,0.175009,0.7612500000000001,0.0175,1.015
1741711704.8951547,-0.5234409999999999,0.863699,0.1711659999999999,0.25375,-0.1225,1.4525
1741711704.8994243,-0.530517,0.876448,0.176961,0.49875,0.21,1.77625
1741711704.9035792,-0.516365,0.868884,0.171227,0.7262500000000001,0.00875,1.6887500000000002
1741711704.9074397,-0.507032,0.853634,0.165981,0.4025,0.1925,1.54875
1741711704.9115882,-0.499712,0.84302,0.1674449999999999,0.07,0.07875,1.37375
1741711704.9163997,-0.500505,0.845155,0.166408,0.1225,-0.02625,1.225
1741711704.9198828,-0.4948929999999999,0.841495,0.16165,-0.105,-0.20125,1.015
1741711704.925772,-0.485987,0.851743,0.171898,-0.2275,-0.0875,0.77875
1741711704.9292178,-0.4948929999999999,0.8562569999999999,0.162382,-0.30625,-0.315,0.4025
1741711704.9340985,-0.499529,0.8471069999999999,0.168726,-0.665,-0.23625,-0.09625
1741711704.9388306,-0.484584,0.845704,0.167872,-1.1462500000000002,-0.5687500000000001,-0.3675
1741711704.944029,-0.509228,0.856074,0.17019,-1.21625,-0.44625,-0.6300000000000001
1741711704.9470797,-0.508191,0.85827,0.172264,-0.8487500000000001,-0.455,-0.35
1741711704.9509575,-0.519659,0.8565619999999999,0.173911,-0.6300000000000001,-0.2625,-0.13125
1741711704.9551904,-0.5170359999999999,0.8626619999999999,0.173179,-0.665,-0.42,0.11375
1741711704.9587862,-0.520818,0.873703,0.185928,-0.35,-0.3675,0.25375
1741711704.9635122,-0.52887,0.872544,0.174887,-0.07875,-0.18375,0.77
1741711704.9666278,-0.527345,0.871507,0.174155,-0.18375,-0.02625,1.09375
1741711704.970147,-0.524539,0.865651,0.17446,0.14,0.30625,1.3125000000000002
1741711704.9769154,-0.51057,0.858148,0.159027,0.35875,-0.02625,1.6275000000000002
1741711704.9795406,-0.50203,0.852109,0.175009,0.5687500000000001,-0.07,1.56625
1741711704.9820075,-0.503738,0.852414,0.1720809999999999,0.37625,0.02625,1.49625
1741711704.986232,-0.501359,0.85461,0.169458,0.32375,0.06125,1.3650000000000002
1741711704.989582,-0.503555,0.854488,0.169214,0.3325,0.04375,1.2075
1741711704.9936547,-0.498004,0.849669,0.169763,0.30625,0.14875,1.12
1741711704.9976084,-0.491782,0.829417,0.159332,0.1225,0.07875,0.63875
1741711705.0029216,-0.494161,0.843264,0.161467,-0.13125,-0.14875,0.49875
1741711705.0061083,-0.501237,0.854488,0.163785,-0.455,-0.2975,0.105
1741711705.0097747,-0.5063,0.857294,0.165127,-0.49875,-0.32375,-0.14875
1741711705.0132587,-0.504653,0.85888,0.16287,-0.77,-0.58625,-0.245
1741711705.0185792,-0.504897,0.8577819999999999,0.168665,-1.0237500000000002,-0.455,-0.44625
1741711705.02205,-0.510936,0.859124,0.164212,-1.3125000000000002,-0.5425000000000001,-0.385
1741711705.02497,-0.516853,0.864614,0.171959,-1.37375,-0.6125,-0.14875
1741711705.0290537,-0.5231359999999999,0.870775,0.177388,-1.015,-0.5425000000000001,0.1225
1741711705.0326805,-0.519903,0.866078,0.179706,-0.69125,-0.5337500000000001,0.48125
1741711705.0366378,-0.522038,0.862601,0.180194,-0.4725,-0.4025,0.7000000000000001
1741711705.039837,-0.516975,0.864858,0.179218,-0.13125,-0.2275,0.8925000000000001
1741711705.04367,-0.512827,0.862723,0.1797669999999999,-0.13125,-0.14,1.00625
1741711705.0464473,-0.513254,0.858514,0.177876,-0.14,0.035,1.1987500000000002
1741711705.049205,-0.510509,0.8538169999999999,0.173667,0.32375,0.21,1.2950000000000002
1741711705.052687,-0.507825,0.8489369999999999,0.17141,0.5162500000000001,0.21875,1.3475
1741711705.0558803,-0.49837,0.850218,0.172203,0.39375,0.245,1.4
1741711705.0590773,-0.498431,0.8492419999999999,0.171349,0.58625,0.21,1.23375
1741711705.0621974,-0.498004,0.85095,0.172569,0.69125,0.18375,1.0850000000000002
1741711705.065182,-0.50447,0.857416,0.167018,0.42875,0.14,1.155
1741711705.0675433,-0.504226,0.856745,0.166469,0.4375,-0.0175,0.98
1741711705.0702028,-0.502884,0.859673,0.166652,0.39375,0.1575,0.77
1741711705.072417,-0.503616,0.858331,0.166103,0.27125,0.0875,0.6212500000000001
1741711705.0749197,-0.499285,0.852414,0.1640899999999999,0.14875,0.035,0.5687500000000001
1741711705.0775216,-0.503738,0.85705,0.162382,-0.04375,-0.18375,0.44625
1741711705.0804155,-0.501115,0.8541219999999999,0.159332,-0.5162500000000001,-0.2275,0.35
1741711705.0829363,-0.5063,0.8547319999999999,0.165188,-0.5950000000000001,-0.3675,0.23625
1741711705.085633,-0.508984,0.8556469999999999,0.163419,-0.48125,-0.21875,0.315
1741711705.0882905,-0.506178,0.859429,0.16836,-0.6737500000000001,-0.4725,0.1225
1741711705.0910256,-0.510143,0.8593069999999999,0.168421,-0.6737500000000001,-0.5162500000000001,0.105
1741711705.0934775,-0.514169,0.860771,0.171288,-0.8137500000000001,-0.5162500000000001,0.11375
1741711705.0957658,-0.515145,0.86559,0.172813,-0.8662500000000001,-0.35,0.07875
1741711705.09917,-0.515084,0.864675,0.171105,-0.77875,-0.455,0.245
1741711705.1018546,-0.517097,0.85949,0.173667,-0.8662500000000001,-0.525,0.2975
1741711705.104217,-0.518012,0.8601,0.175863,-0.6212500000000001,-0.39375,0.4375
1741711705.1065714,-0.5145959999999999,0.860771,0.173545,-0.6212500000000001,-0.41125,0.6212500000000001
1741711705.1088896,-0.508862,0.85766,0.174765,-0.49,-0.175,0.6737500000000001
1741711705.1111288,-0.50813,0.8599169999999999,0.158417,-0.35,-0.245,0.7262500000000001
1741711705.113315,-0.51179,0.858758,0.174338,-0.25375,-0.105,1.05875
1741711705.1156547,-0.513437,0.8602219999999999,0.180255,-0.1575,-0.21,0.8662500000000001
1741711705.1187525,-0.511729,0.853146,0.170739,-0.035,2.19625,0.8137500000000001
1741711705.121733,-0.504897,0.854244,0.17324,-0.07,0.07875,1.0325000000000002
1741711705.1240842,-0.507215,0.8553419999999999,0.1708,-0.035,-0.09625,0.8750000000000001
1741711705.1264524,-0.506788,0.855891,0.172935,0.07,-0.035,1.0237500000000002
1741711705.1287825,-0.50569,0.8532069999999999,0.1717759999999999,0.02625,-0.14,0.77
1741711705.1310284,-0.510631,0.854854,0.169824,0.0525,-0.105,0.7612500000000001
1741711705.1332152,-0.507886,0.855586,0.1659199999999999,2.23125,0.0175,0.69125
1741711705.135659,-0.503067,0.856501,0.163846,-0.02625,-0.16625,0.77
1741711705.1389215,-0.505934,0.8602219999999999,0.167994,-0.11375,-0.00875,0.5162500000000001
1741711705.141667,-0.507764,0.859795,0.171044,-0.035,-0.0875,0.6475000000000001
1741711705.143998,-0.502762,0.856318,0.167506,-0.0875,-0.21875,0.5162500000000001
1741711705.146334,-0.501908,0.856684,0.16897,-0.27125,-0.21875,0.5337500000000001
1741711705.148669,-0.506666,0.859185,0.1708,-0.21875,-0.27125,0.3675
1741711705.1509917,-0.508008,0.8574769999999999,0.1705559999999999,-0.4725,-0.25375,0.3675
1741711705.153181,-0.506666,0.858453,0.168055,-0.37625,-0.385,0.37625
1741711705.1559024,-0.508984,0.862235,0.170129,-0.49875,-0.34125,0.35
1741711705.1585038,-0.51118,0.863089,0.166957,-0.525,-0.42875,0.3325
1741711705.1611984,-0.5155109999999999,0.857721,0.174643,-0.6300000000000001,-0.1925,0.42
1741711705.1635246,-0.507825,0.859124,0.174582,-0.6125,-0.3325,0.4025
1741711705.1658869,-0.509289,0.85766,0.174826,-0.48125,-0.2275,0.3675
1741711705.1681964,-0.5173409999999999,0.857111,0.185867,-0.37625,-0.315,0.5337500000000001
1741711705.1704323,-0.512888,0.859124,0.1726909999999999,-0.44625,-0.32375,0.55125
1741711705.1726253,-0.510204,0.858575,0.180072,-0.39375,-0.3325,0.5162500000000001
1741711705.174966,-0.514108,0.857416,0.170495,-0.315,-0.21,0.6212500000000001
1741711705.1780674,-0.51484,0.858209,0.173423,-0.21,-0.23625,0.63875
1741711705.1811817,-0.51057,0.8577819999999999,0.17141,-0.18375,-0.105,0.77
1741711705.1835272,-0.508923,0.855586,0.174948,-0.13125,-0.1225,0.7175
1741711705.18596,-0.508435,0.853939,0.178181,0.02625,-0.0875,0.7262500000000001
1741711705.1881983,-0.50142,0.856074,0.173728,-0.16625,0.0175,0.8137500000000001
1741711705.190477,-0.505202,0.85095,0.169397,-0.0525,-0.00875,0.7612500000000001
1741711705.192656,-0.50142,0.85766,0.1708609999999999,-0.21875,-0.04375,0.7087500000000001
1741711705.1952307,-0.504958,0.854183,0.169641,0.0525,-0.06125,0.7000000000000001
1741711705.1977096,-0.5127659999999999,0.8568669999999999,0.171532,0.1575,0.0175,0.83125
1741711705.2003748,-0.510814,0.8568669999999999,0.172325,0.2625,-0.04375,0.8662500000000001
1741711705.2026553,-0.510875,0.859368,0.158661,0.25375,0.07875,0.77875
1741711705.2051156,-0.503067,0.856989,0.172203,0.245,0.09625,0.805
1741711705.2074006,-0.508374,0.857538,0.171288,0.00875,0.00875,0.7875000000000001
1741711705.209615,-0.511546,0.859978,0.170495,0.09625,-0.105,0.7962500000000001
1741711705.2119892,-0.510387,0.860954,0.16897,0.06125,-0.13125,0.945
1741711705.2143323,-0.514718,0.8611369999999999,0.169275,0.0875,-0.035,0.93625
1741711705.2170832,-0.510997,0.864248,0.174521,0.13125,0.00875,0.74375
1741711705.2202263,-0.509106,0.859124,0.164944,0.105,-0.06125,0.7875000000000001
1741711705.2227302,-0.506056,0.858575,0.1668349999999999,-0.07875,-0.105,0.7262500000000001
1741711705.2253084,-0.508313,0.8596119999999999,0.166042,-0.175,-0.21,0.8400000000000001
1741711705.2277634,-0.500993,0.854183,0.165676,-0.39375,-0.2625,0.7262500000000001
1741711705.230868,-0.504836,0.8538169999999999,0.168787,-0.3675,-0.3675,0.6125
1741711705.2336977,-0.503189,0.8571719999999999,0.1646999999999999,-0.55125,-0.18375,0.41125
1741711705.2369144,-0.508496,0.8586969999999999,0.167018,-0.6562500000000001,-0.42,0.37625
1741711705.240942,-0.504409,0.857294,0.168787,-0.6475000000000001,-0.35875,0.35
1741711705.2439384,-0.5063,0.859063,0.172935,-0.5950000000000001,-0.27125,0.20125
1741711705.24681,-0.502945,0.854549,0.166591,-0.8400000000000001,-0.49,0.23625
1741711705.2505815,-0.503006,0.853451,0.170739,-0.7087500000000001,-0.41125,0.21875
1741711705.254,-0.507947,0.855586,0.174338,-0.6562500000000001,-0.3325,0.34125
1741711705.2596772,-0.510143,0.856074,0.1736059999999999,-0.3675,-0.28875,0.23625
1741711705.2648554,-0.509899,0.856135,0.175497,-0.175,-0.175,0.5337500000000001
1741711705.2680542,-0.5149009999999999,0.858636,0.173789,-0.13125,-0.0175,0.6562500000000001
1741711705.2712984,-0.511363,0.86071,0.170983,-0.00875,-0.18375,0.6300000000000001
1741711705.2741988,-0.51606,0.8596119999999999,0.170495,0.0875,-0.06125,0.7262500000000001
1741711705.279459,-0.5158159999999999,0.862601,0.171288,0.09625,0.06125,1.015
1741711705.283494,-0.51057,0.861015,0.169275,0.2275,0.18375,1.1900000000000002
1741711705.2910583,-0.506849,0.873947,0.168909,0.14875,-0.02625,1.0762500000000002
1741711705.295209,-0.507581,0.856623,0.169031,0.105,0.00875,0.91
1741711705.298221,-0.508191,0.856989,0.163419,0.035,-0.14,0.8400000000000001
1741711705.301906,-0.500932,0.85278,0.16775,-0.14875,-0.1925,0.6562500000000001
1741711705.3050632,-0.503921,0.852658,0.165371,-0.41125,-0.21875,0.5687500000000001
1741711705.3082042,-0.500932,0.85217,0.167994,-0.6212500000000001,-0.30625,0.4025
1741711705.3118443,-0.503738,0.85461,0.16775,-0.6562500000000001,-0.28,0.27125
1741711705.3157394,-0.505385,0.8583919999999999,0.168665,-0.74375,-0.49,0.0875
1741711705.3194053,-0.502518,0.85766,0.171593,-0.7612500000000001,-0.34125,0.04375
1741711705.3224156,-0.505873,0.85461,0.174887,-0.805,-0.3675,0.07875
1741711705.3266048,-0.505995,0.8507669999999999,0.171898,-0.6825000000000001,-0.3325,0.105
1741711705.329568,-0.510387,0.855098,0.171044,-0.58625,-0.28875,0.1575
1741711705.3335233,-0.509533,0.857965,0.176168,-0.42,-0.315,0.32375
1741711705.3362205,-0.511119,0.861076,0.179279,-0.4025,-0.3325,0.41125
1741711705.3397455,-0.517768,0.863394,0.175619,-0.09625,-0.0525,0.49875
1741711705.3437417,-0.51423,0.861198,0.176351,0.18375,0.04375,0.8662500000000001
1741711705.348797,-0.512217,0.857843,0.175192,0.21875,-0.00875,0.945
1741711705.3522663,-0.515328,0.862296,0.174338,0.27125,0.04375,1.155
1741711705.3565888,-0.515694,0.861381,0.170312,0.30625,0.105,1.18125
1741711705.3594086,-0.509533,0.861808,0.174277,0.2625,0.0875,1.12875
1741711705.3654287,-0.502884,0.8529019999999999,0.169275,0.21875,-0.04375,1.12
1741711705.3686695,-0.501908,0.852963,0.1668349999999999,-0.14,-0.2275,0.945
1741711705.372725,-0.501359,0.851865,0.170922,-0.23625,-0.20125,0.7000000000000001
1741711705.377532,-0.505446,0.8553419999999999,0.1646999999999999,-0.5687500000000001,-0.315,0.4725
1741711705.3817627,-0.502579,0.85156,0.167994,-0.7087500000000001,-0.21875,0.37625
1741711705.3857703,-0.502579,0.849364,0.1708609999999999,-0.8487500000000001,-0.3325,0.1925
1741711705.3886733,-0.501908,0.850401,0.172203,-0.8225000000000001,-0.4025,-0.035
1741711705.3913562,-0.502274,0.853634,0.1733009999999999,-0.8750000000000001,-0.39375,0.035
1741711705.396033,-0.509899,0.853878,0.174582,-0.8400000000000001,-0.28875,-0.09625
1741711705.401596,-0.513132,0.858819,0.174277,-0.56,-0.32375,0.07
1741711705.4062338,-0.512644,0.862296,0.177815,-0.385,-0.175,0.315
1741711705.4090974,-0.515572,0.862113,0.175375,-0.175,-0.20125,0.4025
1741711705.412371,-0.517219,0.862235,0.1773269999999999,-0.1925,-0.105,0.5775
1741711705.4163876,-0.518683,0.86437,0.17263,0.11375,-0.06125,0.83125
1741711705.4197333,-0.519049,0.862784,0.176351,0.21875,-0.09625,1.0325000000000002
1741711705.4232256,-0.5170359999999999,0.863455,0.175192,0.16625,0.14875,1.225
1741711705.4280405,-0.507947,0.8577819999999999,0.169763,0.30625,-0.04375,1.2775
1741711705.4317346,-0.507032,0.859673,0.167994,0.0875,0.16625,1.155
1741711705.436209,-0.505446,0.855281,0.1662249999999999,0.1575,-0.00875,1.09375
1741711705.440293,-0.499529,0.85461,0.1717759999999999,-0.0875,-0.20125,0.7612500000000001
1741711705.4453,-0.504897,0.854,0.167811,-0.09625,-0.2275,0.77
1741711705.4491313,-0.501908,0.853085,0.162199,-0.385,-0.20125,0.5950000000000001
1741711705.4523098,-0.498736,0.85278,0.17141,-0.5337500000000001,-0.37625,0.42875
1741711705.4564276,-0.501298,0.849669,0.169214,-0.58625,-0.28875,0.2975
1741711705.4606006,-0.500566,0.852475,0.1705559999999999,-0.6125,-0.30625,0.02625
1741711705.464719,-0.506544,0.8562569999999999,0.169519,-0.8400000000000001,-0.42,-0.02625
1741711705.468859,-0.515572,0.854671,0.176229,-0.7612500000000001,-0.21875,0.00875
1741711705.4721894,-0.511607,0.857538,0.169641,-0.5775,-0.30625,0.09625
1741711705.4753866,-0.504592,0.861015,0.1699459999999999,-0.37625,-0.27125,0.35875
1741711705.4808538,-0.5188659999999999,0.8651019999999999,0.1597589999999999,-0.28,-0.18375,0.46375
1741711705.486228,-0.5206959999999999,0.8702259999999999,0.1769,-0.175,-0.11375,0.8487500000000001
1741711705.490276,-0.512034,0.86376,0.173667,-0.035,-0.07875,0.97125
1741711705.4936528,-0.515145,0.864614,0.171837,-0.00875,-0.00875,1.05
1741711705.4970317,-0.515999,0.8605269999999999,0.172752,0.07875,-0.02625,0.90125
1741711705.5019956,-0.508008,0.859185,0.171959,0.1575,0.02625,1.16375
1741711705.5055723,-0.506971,0.855464,0.169214,0.07875,-0.00875,1.23375
1741711705.5098884,-0.504897,0.854244,0.1699459999999999,0.09625,-0.0525,1.015
1741711705.512889,-0.4991629999999999,0.853085,0.171898,0.07875,-0.02625,0.98875
1741711705.5163531,-0.4988579999999999,0.854183,0.171654,-0.105,0.00875,0.83125
1741711705.520638,-0.500688,0.85034,0.167994,-0.14875,-0.105,0.5425000000000001
1741711705.5234864,-0.494161,0.849669,0.169641,-0.27125,-0.23625,0.46375
1741711705.526241,-0.49898,0.852231,0.168909,-0.41125,-0.1925,0.35
1741711705.529441,-0.504104,0.85095,0.167689,-0.4375,-0.1575,0.1225
1741711705.5327585,-0.50508,0.854366,0.167384,-0.6475000000000001,-0.30625,0.18375
1741711705.5384886,-0.508923,0.8577819999999999,0.169763,-0.90125,-0.27125,0.0525
1741711705.541675,-0.508923,0.858331,0.173728,-0.665,-0.315,0.0
1741711705.5441434,-0.514047,0.860466,0.168543,-0.6825000000000001,-0.39375,0.07
1741711705.547696,-0.5145959999999999,0.860405,0.170312,-0.7612500000000001,-0.42875,0.4025
1741711705.551798,-0.513864,0.86376,0.173911,-0.5075000000000001,-0.32375,0.315
1741711705.5580838,-0.518073,0.864248,0.186355,-0.42,-0.315,0.5775
1741711705.5610895,-0.5124609999999999,0.864553,0.175009,-0.35875,-0.1925,0.7612500000000001
1741711705.5649772,-0.510143,0.859856,0.173789,-0.23625,-0.18375,0.6825000000000001
1741711705.5674813,-0.510753,0.858453,0.174216,-0.245,-0.0875,0.8575
1741711705.5716822,-0.509228,0.855769,0.169458,-0.28,-0.1225,0.97125
1741711705.5748398,-0.510021,0.855586,0.17263,-0.2625,-0.175,0.95375
1741711705.5792897,-0.505568,0.855525,0.169519,-0.315,-0.0875,0.8925000000000001
1741711705.5824735,-0.504287,0.8565619999999999,0.1717759999999999,-0.14,0.035,0.945
1741711705.5855868,-0.505263,0.85766,0.1736059999999999,-0.18375,0.035,0.83125
1741711705.5903845,-0.505934,0.85278,0.1726909999999999,-0.21875,-0.16625,0.6562500000000001
1741711705.5937114,-0.505568,0.851011,0.169397,-0.20125,-0.0875,0.7350000000000001
1741711705.5980136,-0.504775,0.856806,0.174521,-0.175,-0.00875,0.49875
1741711705.601836,-0.506361,0.85644,0.16958,-0.175,-0.07875,0.3675
1741711705.6062503,-0.507276,0.856318,0.170068,-0.14,-0.175,0.41125
1741711705.6100242,-0.511485,0.858209,0.17202,-0.245,-0.11375,0.5775
1741711705.6129885,-0.508618,0.8601,0.16775,-0.2275,-0.175,0.39375
1741711705.6163268,-0.512278,0.859856,0.168604,-0.25375,-0.35875,0.6562500000000001
1741711705.619662,-0.5145959999999999,0.864431,0.169397,-0.44625,-0.2975,0.5337500000000001
1741711705.622973,-0.505995,0.8586969999999999,0.183854,-0.13125,0.16625,0.88375
1741711705.6265528,-0.502335,0.8647969999999999,0.161162,-0.175,-0.41125,0.58625
1741711705.6292946,-0.513437,0.8519869999999999,0.1586,-0.665,-0.7262500000000001,0.35
1741711705.6317606,-0.517158,0.85705,0.186233,-0.77,-0.525,0.28875
1741711705.6352508,-0.525698,0.850889,0.185135,0.035,0.46375,1.2075
1741711705.6398842,-0.489342,0.861015,0.15433,-0.58625,-0.83125,0.455
1741711705.644709,-0.5240509999999999,0.85522,0.182146,-0.7262500000000001,-0.27125,0.315
1741711705.6477356,-0.512644,0.851865,0.173484,-0.4025,0.02625,0.49875
1741711705.6509602,-0.490928,0.859124,0.168665,-0.6300000000000001,-0.2625,0.46375
1741711705.6533651,-0.498675,0.853756,0.182817,-0.6825000000000001,-0.3675,0.3675
1741711705.6558976,-0.516365,0.853268,0.176046,-0.27125,-0.2625,0.34125
1741711705.6608968,-0.502152,0.844545,0.178974,0.0875,0.1225,0.23625
1741711705.6643236,-0.510814,0.8614419999999999,0.178669,2.00375,-0.3675,0.8137500000000001
1741711705.66708,-0.516792,0.866566,0.182817,0.5687500000000001,0.1925,0.7262500000000001
1741711705.6697118,-0.519903,0.862296,0.171959,0.49,0.21875,1.1900000000000002
1741711705.6735291,-0.501786,0.856379,0.166957,0.2625,-0.27125,0.6125
1741711705.6783862,-0.512278,0.8620519999999999,0.174155,-0.07,-0.02625,1.0762500000000002
1741711705.6815016,-0.51728,0.861991,0.164944,0.1575,0.0875,0.805
1741711705.6847737,-0.505873,0.8516819999999999,0.156099,-0.3675,-0.20125,0.60375
1741711705.687383,-0.511302,0.857416,0.1653099999999999,-0.245,-0.13125,0.8137500000000001
1741711705.6914597,-0.50203,0.8647969999999999,0.179828,-0.04375,0.035,0.7962500000000001
1741711705.6955383,-0.506788,0.856074,0.168543,0.07875,-0.14875,0.7525000000000001
1741711705.6986425,-0.505446,0.852719,0.163114,-0.77875,-0.4375,0.5950000000000001
1741711705.701615,-0.508313,0.8550369999999999,0.170495,-0.7087500000000001,-0.35875,0.56
1741711705.7044373,-0.513925,0.8705309999999999,0.171044,-0.60375,-0.105,0.37625
1741711705.7073262,-0.506178,0.862174,0.168726,-0.5775,-0.37625,0.315
1741711705.7118802,-0.500444,0.851194,0.169763,-0.69125,-0.21875,-0.105
1741711705.7153962,-0.496906,0.844423,0.1723859999999999,-0.83125,-0.13125,0.14875
1741711705.7181876,-0.505629,0.850035,0.175192,-0.6125,-0.35,0.14875
1741711705.721758,-0.508069,0.85461,0.171105,-0.7175,-0.48125,0.34125
1741711705.7251065,-0.510936,0.857965,0.183061,-0.27125,-0.07,0.27125
1741711705.727884,-0.515877,0.8632719999999999,0.177754,-0.02625,-0.0175,0.6562500000000001
1741711705.730852,-0.515999,0.864675,0.177266,0.21875,-0.07875,0.58625
1741711705.73392,-0.5222209999999999,0.859978,0.1764119999999999,0.14875,0.00875,0.7962500000000001
1741711705.736812,-0.514657,0.85827,0.180011,0.27125,0.175,0.8662500000000001
1741711705.7394197,-0.511973,0.858636,0.176229,0.49875,0.27125,1.05
1741711705.742501,-0.508313,0.858331,0.166164,0.25375,0.175,1.1987500000000002
1741711705.7466185,-0.515084,0.862479,0.171349,0.37625,-0.0525,1.1462500000000002
1741711705.7498631,-0.500139,0.862784,0.172447,0.21875,0.02625,1.05
1741711705.7530525,-0.512034,0.863211,0.162504,0.0875,-0.1225,0.9625
1741711705.7565727,-0.505263,0.85827,0.158295,-0.35875,-0.245,0.805
1741711705.7606304,-0.503677,0.855525,0.164883,-0.525,-0.30625,0.46375
1741711705.7632546,-0.503494,0.8580869999999999,0.167567,-0.77,-0.3675,0.49
1741711705.7685916,-0.505812,0.852658,0.168543,-0.88375,-0.35875,0.34125
1741711705.771912,-0.502579,0.852109,0.1708,-0.8662500000000001,-0.5075000000000001,0.35875
1741711705.7756672,-0.502945,0.85522,0.1699459999999999,-0.5337500000000001,-0.48125,0.3325
1741711705.7783115,-0.503006,0.853634,0.179523,-0.5775,-0.3325,0.32375
1741711705.7820632,-0.508862,0.854366,0.1764119999999999,-0.5425000000000001,-0.28,0.32375
1741711705.7852404,-0.504714,0.854671,0.170617,-0.6212500000000001,-0.2625,0.245
1741711705.790848,-0.504897,0.853878,0.170922,-0.35875,-0.34125,0.175
1741711705.7943716,-0.51545,0.854976,0.172874,-0.13125,-0.04375,0.42875
1741711705.797289,-0.514108,0.859124,0.174338,-0.14875,-0.09625,0.44625
1741711705.800069,-0.513864,0.86193,0.177571,-0.06125,-0.0525,0.7262500000000001
1741711705.8036356,-0.51362,0.867237,0.178303,0.21,-0.14875,0.6475000000000001
1741711705.808092,-0.5179509999999999,0.864614,0.1770219999999999,0.0875,-0.02625,1.015
1741711705.8109963,-0.511912,0.864065,0.167689,0.04375,-0.04375,0.945
1741711705.8141935,-0.509777,0.862418,0.169702,0.1225,-0.175,0.98
1741711705.8168757,-0.513803,0.8602219999999999,0.164944,-0.02625,-0.07875,0.88375
1741711705.8215537,-0.510692,0.854793,0.163846,-0.0525,-0.0175,0.93625
1741711705.8250573,-0.50325,0.853146,0.166347,-0.16625,-0.21,0.8487500000000001
1741711705.828723,-0.504958,0.85461,0.166896,-0.42,-0.14,0.6825000000000001
1741711705.831802,-0.486719,0.851316,0.167018,-0.23625,-0.2625,0.525
1741711705.8362842,-0.503616,0.855281,0.173667,-0.58625,-0.30625,0.49875
1741711705.839149,-0.507459,0.85705,0.173545,-0.315,-0.2625,0.39375
1741711705.842748,-0.506178,0.852658,0.1723859999999999,-0.28,-0.175,0.4725
1741711705.8474047,-0.499224,0.8498519999999999,0.169641,-0.245,-0.0875,0.4725
1741711705.8501146,-0.50142,0.852475,0.176961,-0.315,-0.105,0.35
1741711705.85279,-0.507093,0.85034,0.1708,-0.245,-0.06125,0.525
1741711705.855523,-0.505019,0.856623,0.167689,-0.0875,-0.245,0.37625
1741711705.8585343,-0.504104,0.858941,0.160918,-0.1925,-0.30625,0.4025
1741711705.8629951,-0.510936,0.860405,0.17019,-0.0525,-0.14,0.385
1741711705.8666432,-0.509228,0.858819,0.171898,-0.2975,-0.1575,0.4375
1741711705.8698442,-0.528565,0.859246,0.172447,-0.34125,-0.14,0.42
1741711705.874159,-0.5155109999999999,0.861686,0.174643,-0.21,-0.23625,0.56
1741711705.877694,-0.515755,0.864858,0.173789,-0.04375,-0.0875,0.77875
1741711705.8817315,-0.514657,0.865895,0.175314,0.0175,-0.21,1.00625
1741711705.885985,-0.509777,0.863394,0.170922,-0.035,0.04375,1.0675
1741711705.889615,-0.510814,0.860161,0.185135,-0.07,-0.07875,0.8225000000000001
1741711705.892599,-0.506483,0.860161,0.166469,-0.2625,-0.105,1.05
1741711705.895409,-0.504531,0.854976,0.170312,-0.2275,-0.13125,0.98
1741711705.8985536,-0.500627,0.8504619999999999,0.169824,-0.385,-0.23625,0.7525000000000001
1741711705.9013004,-0.4994679999999999,0.850828,0.170739,-0.28,-0.25375,0.6212500000000001
1741711705.9059982,-0.497882,0.848815,0.1659199999999999,-0.48125,-0.27125,0.4025
1741711705.9096398,-0.505019,0.849791,0.1674449999999999,-0.55125,-0.315,0.35
1741711705.9131238,-0.500932,0.85461,0.171959,-0.48125,-0.35875,0.1225
1741711705.9161649,-0.507276,0.8547319999999999,0.174338,-0.7087500000000001,-0.32375,0.1575
1741711705.9198332,-0.504531,0.855525,0.180194,-0.46375,-0.18375,0.0875
1741711705.9231226,-0.511363,0.856135,0.182146,-0.5775,-0.21875,0.23625
1741711705.9267237,-0.508069,0.857599,0.1736059999999999,-0.5337500000000001,-0.48125,0.07875
1741711705.9305544,-0.512156,0.859856,0.173545,-0.48125,-0.13125,0.20125
1741711705.933485,-0.513742,0.861686,0.180743,-0.41125,-0.3325,0.3675
1741711705.9361176,-0.513925,0.861198,0.173484,-0.4375,-0.2275,0.42875
1741711705.9386258,-0.513254,0.865163,0.176778,-0.35,-0.14875,0.49
1741711705.941391,-0.519537,0.864431,0.175314,-0.14,-0.09625,0.5775
1741711705.9452426,-0.515938,0.861808,0.171715,-0.105,-0.1225,0.6212500000000001
1741711705.9483514,-0.518744,0.866261,0.171837,-0.0875,0.0,1.05
1741711705.9521337,-0.51484,0.861686,0.178486,0.1925,-0.0525,1.18125
1741711705.955278,-0.51606,0.8617469999999999,0.175375,0.0875,0.0875,1.37375
1741711705.9585538,-0.505751,0.8580869999999999,0.173789,0.28,-0.02625,1.015
1741711705.961104,-0.509594,0.856684,0.170068,0.13125,0.035,1.2425000000000002
1741711705.963957,-0.50325,0.853024,0.164273,0.1575,-0.02625,0.98
1741711705.967807,-0.50203,0.8535119999999999,0.1653099999999999,-0.0525,0.035,0.98875
1741711705.9716947,-0.499407,0.8501569999999999,0.164761,-0.04375,-0.18375,0.6475000000000001
1741711705.97555,-0.497089,0.84912,0.167323,-0.41125,-0.20125,0.525
1741711705.979442,-0.501786,0.854366,0.166896,-0.55125,-0.315,0.3325
1741711705.98244,-0.494527,0.852536,0.167018,-0.6475000000000001,-0.39375,-2.1525000000000003
1741711705.9858124,-0.50508,0.8529019999999999,0.171105,-0.6737500000000001,-0.42,-0.035
1741711705.9885995,-0.500627,0.854061,0.173789,-0.665,-0.1925,0.0
1741711705.9935129,-0.505751,0.8559519999999999,0.1665299999999999,-0.6825000000000001,-0.37625,0.18375
1741711705.996251,-0.508557,0.858514,0.179584,-0.63875,-0.34125,0.035
1741711705.9988356,-0.519903,0.8602219999999999,0.177571,-0.5162500000000001,-0.28,0.28875
1741711706.001273,-0.508496,0.860161,0.177754,-0.525,-0.28875,0.2975
1741711706.0037367,-0.510448,0.848266,0.167506,-0.2625,-0.14875,0.30625
1741711706.006395,-0.514169,0.8596119999999999,0.167872,-0.21875,-0.2625,0.49875
1741711706.013862,-0.515389,0.860466,0.177388,-0.00875,-0.1925,0.7262500000000001
1741711706.0166724,-0.51911,0.859063,0.176473,-0.035,-0.1575,0.9975
1741711706.0193512,-0.512217,0.873825,0.170617,0.0175,-0.0175,0.98
1741711706.0222895,-0.515694,0.858819,0.16897,0.14875,-0.14875,1.0325000000000002
1741711706.025807,-0.510509,0.8608319999999999,0.172813,0.175,-0.07875,1.1462500000000002
1741711706.0301285,-0.509289,0.86437,0.173911,0.25375,0.0875,1.4
1741711706.033764,-0.500566,0.855159,0.168543,0.07,0.07875,1.1725
1741711706.0380912,-0.496052,0.85339,0.169092,-0.06125,-0.0875,0.945
1741711706.0413485,-0.4945879999999999,0.851804,0.168482,-0.1925,-0.105,0.8925000000000001
1741711706.0459,-0.507459,0.851011,0.169031,-0.35875,-0.105,0.5775
1741711706.0499916,-0.503982,0.849669,0.167689,-0.35875,-0.2975,0.245
1741711706.0536125,-0.500322,0.85095,0.166469,-0.6125,-0.3675,0.16625
1741711706.057788,-0.503189,0.8492419999999999,0.166957,-0.8137500000000001,-0.34125,0.18375
1741711706.0605645,-0.511058,0.852231,0.1717759999999999,-0.8487500000000001,-0.4725,0.14875
1741711706.0637066,-0.510997,0.862296,0.167872,-0.74375,-0.41125,-0.0875
1741711706.0679529,-0.51057,0.861381,0.1761069999999999,-0.5950000000000001,-0.32375,0.035
1741711706.0731354,-0.509838,0.85949,0.169397,-0.39375,-0.2625,0.20125
1741711706.0764585,-0.518073,0.8601,0.175985,-0.41125,-0.2625,0.44625
1741711706.0798993,-0.5197809999999999,0.8617469999999999,0.178059,-0.35875,-0.28875,0.6562500000000001
1741711706.0834255,-0.514657,0.863638,0.175253,-0.14875,-0.0875,0.6737500000000001
1741711706.086604,-0.515877,0.861381,0.173362,-0.09625,0.0525,0.8400000000000001
1741711706.089965,-0.514657,0.861015,0.175741,0.0875,-0.00875,1.00625
1741711706.0941608,-0.51545,0.856928,0.172569,0.06125,0.07,1.1725
1741711706.098153,-0.510936,0.8574769999999999,0.172752,0.14875,0.14875,1.3562500000000002
1741711706.1022437,-0.509411,0.856501,0.173728,0.1925,-0.02625,1.155
1741711706.105617,-0.51423,0.854366,0.1711659999999999,0.28,0.07875,0.98
1741711706.108292,-0.501725,0.858148,0.169336,0.14875,0.0875,1.0675
1741711706.112068,-0.500932,0.853085,0.163724,0.06125,-0.0875,0.8662500000000001
1741711706.1169007,-0.500017,0.851621,0.167994,-0.105,-0.06125,0.69125
1741711706.1200342,-0.501908,0.851804,0.166652,-0.1575,-0.1575,0.58625
1741711706.122814,-0.501603,0.8556469999999999,0.168238,-0.28875,-0.1925,0.4725
1741711706.1259696,-0.501786,0.856684,0.166957,-0.39375,-0.20125,0.28875
1741711706.1287537,-0.503738,0.860588,0.173179,-0.44625,-0.39375,0.2275
1741711706.1323593,-0.510753,0.859734,0.16958,-0.55125,-0.3325,0.23625
1741711706.1351202,-0.510265,0.86071,0.17324,-0.60375,-0.315,0.2275
1741711706.1384218,-0.509899,0.858026,0.170922,-0.56,-0.3325,0.2975
1741711706.1409209,-0.5130709999999999,0.857843,0.169275,-0.6125,-0.28,0.2975
1741711706.1437523,-0.511424,0.8608319999999999,0.17019,-0.6562500000000001,-0.39375,0.39375
1741711706.1479623,-0.51179,0.8626619999999999,0.17019,-0.6125,-0.28875,0.3675
1741711706.1509783,-0.511546,0.861686,0.175497,-0.5425000000000001,-0.35875,0.5775
1741711706.1536934,-0.512949,0.86254,0.176839,-0.525,-0.39375,0.6562500000000001
1741711706.1564505,-0.510387,0.862235,0.177144,-0.44625,-0.2975,0.49
1741711706.159371,-0.512217,0.858209,0.173911,-0.42875,-0.32375,0.5775
1741711706.161656,-0.506666,0.873032,0.178303,-0.48125,-0.1925,0.7175
1741711706.164094,-0.507459,0.8547319999999999,0.172447,-0.35,-0.21,0.7175
1741711706.1665664,-0.509655,0.852414,0.171837,-0.3325,-0.14875,0.7875000000000001
1741711706.1695535,-0.509411,0.854793,0.172142,-0.07,-0.23625,0.83125
1741711706.1721678,-0.506727,0.8550369999999999,0.173728,-0.13125,-0.06125,0.8400000000000001
1741711706.1750388,-0.51057,0.8553419999999999,0.173179,-0.175,-2.24,0.74375
1741711706.17739,-0.50996,0.856928,0.176046,0.02625,2.1787500000000004,0.8662500000000001
1741711706.179945,-0.511302,0.853024,0.172264,0.16625,0.09625,0.88375
1741711706.182422,-0.508313,0.856379,0.173423,0.11375,0.02625,0.93625
1741711706.1847064,-0.505019,0.8513769999999999,0.171959,0.20125,0.02625,0.8225000000000001
1741711706.1870265,-0.503738,0.85766,0.171044,0.21,0.00875,0.83125
1741711706.1895854,-0.504165,0.856135,0.1702509999999999,0.07,0.00875,0.90125
1741711706.1923287,-0.507398,0.855769,0.173484,0.0,-0.02625,0.5950000000000001
1741711706.1954567,-0.507093,0.8583919999999999,0.172203,-2.24,-0.06125,0.665
1741711706.1980424,-0.508923,0.858636,0.166591,-0.14,-0.18375,0.55125
1741711706.2004929,-0.503128,0.856379,0.170007,-0.20125,-0.1575,0.5337500000000001
1741711706.2030077,-0.500688,0.85827,0.1714709999999999,-0.23625,-0.2625,0.41125
1741711706.2052655,-0.502335,0.8559519999999999,0.172752,-0.46375,-0.21,0.5075000000000001
1741711706.2077177,-0.506971,0.858819,0.172508,-0.4025,-0.39375,0.35875
1741711706.2108965,-0.509655,0.858941,0.169092,-0.4375,-0.30625,0.41125
1741711706.2139294,-0.509899,0.858453,0.1665299999999999,-0.5162500000000001,-0.2975,0.48125
1741711706.21637,-0.511302,0.860405,0.173484,-0.49875,-0.245,0.55125
1741711706.2191248,-0.507825,0.859368,0.173057,-0.60375,-0.315,0.4725
1741711706.2216094,-0.507825,0.857416,0.169763,-0.48125,-0.44625,0.27125
1741711706.2240782,-0.505751,0.85522,0.172447,-0.55125,-0.25375,0.2975
1741711706.226391,-0.509777,0.858514,0.175497,-0.69125,-0.42875,0.46375
1741711706.229201,-0.505873,0.856318,0.1699459999999999,-0.74375,-0.48125,0.4025
1741711706.2318451,-0.507825,0.856928,0.175375,-0.5337500000000001,-0.4375,0.5075000000000001
1741711706.2351236,-0.509777,0.858514,0.16165,-0.46375,-0.37625,0.4725
1741711706.2376618,-0.511119,0.854305,0.1736059999999999,-0.49,-0.245,0.4725
1741711706.2402732,-0.5127659999999999,0.853573,0.173423,-0.49,-0.14875,0.42
1741711706.2425315,-0.509411,0.85583,0.1705559999999999,-0.315,-0.175,0.60375
1741711706.244974,-0.512949,0.854793,0.17324,-0.21,-0.2275,0.665
1741711706.247316,-0.509533,0.8565619999999999,0.173789,-0.1575,-0.14875,0.7000000000000001
1741711706.2511704,-0.511424,0.855098,0.17629,-0.0175,2.19625,0.6562500000000001
1741711706.25431,-0.507642,0.85705,0.173179,-0.04375,0.04375,0.77
1741711706.2569246,-0.511119,0.860344,0.171715,0.105,-0.04375,0.805
1741711706.2595236,-0.509777,0.8586969999999999,0.168787,0.0875,-0.035,0.8225000000000001
1741711706.2620218,-0.5133759999999999,0.858514,0.168482,0.1225,0.11375,0.8750000000000001
1741711706.2645755,-0.506971,0.8590019999999999,0.169885,0.04375,-0.035,0.7962500000000001
1741711706.2670712,-0.50874,0.860588,0.174704,-0.175,-0.13125,0.63875
1741711706.2699208,-0.507459,0.858575,0.184464,-0.11375,-0.105,0.665
1741711706.2729373,-0.507032,0.8608319999999999,0.171227,-0.0525,-0.21875,0.6212500000000001
1741711706.275626,-0.509716,0.860344,0.168665,-0.2275,-0.245,0.5775
1741711706.2781126,-0.507764,0.859978,0.167201,-0.27125,-0.1925,0.6300000000000001
1741711706.2804563,-0.507215,0.845399,0.170739,-0.2625,-0.21875,0.5775
1741711706.283314,-0.507032,0.856623,0.168604,-0.41125,-0.3325,0.56
1741711706.2860794,-0.50813,0.8562569999999999,0.169214,-0.5950000000000001,-0.32375,0.49
1741711706.2890034,-0.507947,0.85888,0.1702509999999999,-0.6737500000000001,-0.3675,0.525
1741711706.2916837,-0.506849,0.8571719999999999,0.1733009999999999,-0.5425000000000001,-0.39375,0.3675
1741711706.2944472,-0.510204,0.8553419999999999,0.172264,-0.5075000000000001,-0.39375,0.4025
1741711706.2968402,-0.507459,0.85461,0.165188,-0.4375,-0.25375,0.3325
1741711706.2994497,-0.51118,0.852048,0.166774,-0.5425000000000001,-0.245,0.20125
1741711706.3017254,-0.504409,0.854976,0.174704,-0.6825000000000001,-0.32375,0.35
1741711706.3044105,-0.508923,0.853573,0.173362,-0.6825000000000001,-0.2275,0.28875
1741711706.3076935,-0.508862,0.854671,0.1708609999999999,-0.6212500000000001,-0.25375,0.3325
1741711706.3109865,-0.508191,0.857294,0.176168,-0.34125,-0.245,0.49
1741711706.3138857,-0.515938,0.859429,0.170373,-0.3325,-0.34125,0.5775
1741711706.3162985,-0.507947,0.860588,0.178364,-0.27125,-0.245,0.5162500000000001
1741711706.318899,-0.511546,0.858819,0.183061,-0.16625,0.04375,0.58625
1741711706.321159,-0.513193,0.85705,0.171898,0.04375,0.23625,0.7612500000000001
1741711706.3237407,-0.512339,0.850889,0.171898,-0.06125,-0.32375,0.74375
1741711706.3268726,-0.504043,0.85583,0.181902,-0.0175,0.0,0.6825000000000001
1741711706.3302462,-0.518317,0.865773,0.171715,0.49,0.49875,1.04125
1741711706.3326335,-0.512827,0.855159,0.16897,0.20125,-0.27125,0.91875
1741711706.3354788,-0.51423,0.856989,0.1837929999999999,-0.14875,-0.2975,0.74375
1741711706.3380308,-0.521672,0.867176,0.1831829999999999,0.4375,0.5687500000000001,1.37375
1741711706.3406017,-0.498919,0.863943,0.163907,0.3325,0.27125,1.1987500000000002
1741711706.3428276,-0.496479,0.857538,0.144204,-0.25375,-0.49,0.91
1741711706.3456843,-0.501054,0.861076,0.1785469999999999,-0.2975,-0.7612500000000001,0.4375
1741711706.3482196,-0.5222209999999999,0.862113,0.18666,0.0,0.20125,0.93625
1741711706.3514824,-0.50569,0.85156,0.157319,-0.5162500000000001,0.00875,0.91
1741711706.3538504,-0.4874509999999999,0.85583,0.157197,-0.7000000000000001,-0.39375,0.42
1741711706.356667,-0.4967229999999999,0.8553419999999999,0.171959,-0.55125,-0.49,0.44625
1741711706.3590283,-0.500688,0.8461919999999999,0.167567,-0.5162500000000001,-0.34125,0.44625
1741711706.3615944,-0.501908,0.844911,0.167018,-0.69125,-0.35875,0.3675
1741711706.3637974,-0.506239,0.854305,0.169885,-0.7262500000000001,-0.3675,0.3325
1741711706.3669171,-0.503372,0.8559519999999999,0.170434,-0.7875000000000001,-0.1925,0.385
1741711706.370199,-0.504409,0.853146,0.1714709999999999,-0.55125,-0.49875,0.14875
1741711706.3730123,-0.510082,0.856074,0.178791,-0.48125,-0.39375,0.0875
1741711706.3757694,-0.508252,0.855586,0.176595,-0.6300000000000001,-0.30625,0.4025
1741711706.3784978,-0.50508,0.853146,0.1720809999999999,-0.525,-0.20125,0.21
1741711706.3810673,-0.505446,0.856196,0.174643,-0.3325,-0.30625,0.35875
1741711706.383643,-0.506178,0.856928,0.174399,-0.25375,-0.21875,0.23625
1741711706.3866072,-0.510814,0.855586,0.167384,-0.27125,-0.1925,0.48125
1741711706.3898304,-0.5139859999999999,0.855525,0.169214,-0.37625,-0.2625,0.41125
1741711706.392705,-0.511119,0.865041,0.179584,-0.21,-0.14875,0.56
1741711706.3955443,-0.512827,0.8620519999999999,0.180682,0.2275,-0.06125,0.7262500000000001
1741711706.398316,-0.5155109999999999,0.85644,0.1711659999999999,0.07,-0.14875,0.77875
1741711706.4010165,-0.507886,0.854915,0.1708,-0.14,0.07,0.77875
1741711706.403587,-0.507093,0.8623569999999999,0.174399,-0.07875,-0.105,0.7525000000000001
1741711706.4063191,-0.515633,0.8662,0.172813,0.21,-0.07,1.155
1741711706.4096072,-0.5136809999999999,0.862601,0.17385,0.32375,0.0875,1.0762500000000002
1741711706.412962,-0.514108,0.857416,0.171227,0.18375,-0.06125,1.11125
1741711706.4158306,-0.514413,0.8562569999999999,0.1594539999999999,0.1225,0.09625,1.155
1741711706.4187014,-0.498797,0.857294,0.167567,0.09625,-0.02625,1.0762500000000002
1741711706.421306,-0.509533,0.8580869999999999,0.168909,-0.06125,-0.20125,0.90125
1741711706.424003,-0.502091,0.8571719999999999,0.174765,-0.1925,-0.16625,0.805
1741711706.4266517,-0.50325,0.851499,0.167384,-0.4725,-0.18375,0.805
1741711706.430724,-0.497089,0.852841,0.167262,-0.455,-0.35,0.28
1741711706.4340324,-0.507032,0.8516819999999999,0.165798,-0.5687500000000001,-0.28,0.3325
1741711706.4367142,-0.503982,0.8522919999999999,0.167933,-0.7962500000000001,-0.41125,0.20125
1741711706.4394555,-0.505568,0.8532069999999999,0.172752,-0.7000000000000001,-0.39375,0.2625
1741711706.442085,-0.505629,0.854,0.171837,-0.525,-0.18375,0.2625
1741711706.4446244,-0.503189,0.851926,0.171105,-0.5162500000000001,-0.175,0.23625
1741711706.4473238,-0.502213,0.853634,0.169641,-0.5950000000000001,-0.48125,0.21875
1741711706.4508054,-0.50996,0.857843,0.1770219999999999,-0.5425000000000001,-0.245,0.2275
1741711706.4534962,-0.516304,0.866261,0.180987,-0.28,-0.16625,0.32375
1741711706.4562254,-0.5142909999999999,0.8638819999999999,0.175619,-0.4025,-0.1575,0.5075000000000001
1741711706.4590735,-0.512339,0.861076,0.171898,-0.27125,-0.11375,0.44625
1741711706.461795,-0.511912,0.858819,0.172264,-0.32375,-0.16625,0.49875
1741711706.4643755,-0.509045,0.858636,0.180133,-0.20125,-0.20125,0.56
1741711706.4669323,-0.510936,0.8568669999999999,0.17263,-0.07,-0.175,0.6212500000000001
1741711706.4698346,-0.500627,0.858148,0.172264,-0.07,-0.1575,0.7000000000000001
1741711706.472758,-0.5176459999999999,0.86193,0.172508,0.035,-0.06125,0.8750000000000001
1741711706.4758976,-0.51362,0.8651019999999999,0.175314,0.13125,0.04375,0.9625
1741711706.4787526,-0.5149009999999999,0.862845,0.177083,0.13125,-0.07,1.12875
1741711706.4815311,-0.5124,0.8601,0.175009,0.28,-0.04375,1.12
1741711706.484168,-0.510631,0.85827,0.167811,0.175,0.07875,1.225
1741711706.4867382,-0.51057,0.857538,0.162809,0.20125,0.0525,1.1025
1741711706.4894753,-0.513925,0.861381,0.156526,-0.00875,-0.175,1.1375000000000002
1741711706.4929044,-0.510448,0.856013,0.180072,0.0875,-0.11375,1.12875
1741711706.496261,-0.500505,0.850218,0.195139,0.6825000000000001,0.525,1.16375
1741711706.498906,-0.502152,0.836005,0.177571,0.58625,0.5425000000000001,1.2950000000000002
1741711706.5016427,-0.49532,0.830637,0.162992,0.21,-0.0175,0.8925000000000001
1741711706.5043676,-0.4985529999999999,0.850401,0.169092,0.09625,0.105,0.5162500000000001
1741711706.506958,-0.504409,0.870043,0.159698,0.6125,0.49,0.9625
1741711706.5097704,-0.501359,0.880718,0.139507,0.37625,-0.09625,0.945
1741711706.5135927,-0.52582,0.8726659999999999,0.1891,-0.175,-0.63875,0.8137500000000001
1741711706.5170443,-0.522709,0.856806,0.165249,0.14,0.6825000000000001,0.7962500000000001
1741711706.519937,-0.4766539999999999,0.8418,0.132309,-1.5312500000000002,-0.6562500000000001,0.25375
1741711706.5228963,-0.474153,0.84973,0.164334,-2.07375,-1.67125,-0.77
1741711706.5255177,-0.513193,0.8626619999999999,0.1764119999999999,-2.1787500000000004,-1.26875,-0.7087500000000001
1741711706.5280883,-0.520452,0.854183,0.168726,-1.93375,-0.6737500000000001,-0.805
1741711706.5308006,-0.512278,0.849181,0.1656149999999999,-1.61875,-0.3325,-0.7962500000000001
1741711706.5345163,-0.510021,0.845582,0.171654,-1.5225000000000002,-0.37625,-0.27125
1741711706.5377948,-0.502274,0.837591,0.182512,-0.77,-0.55125,-0.02625
1741711706.5405724,-0.508801,0.84241,0.189466,-0.315,-0.21875,0.21
1741711706.5433457,-0.514047,0.861015,0.190686,-0.0525,-0.25375,0.5775
1741711706.545979,-0.525271,0.869372,0.182329,-0.14,-0.20125,0.88375
1741711706.54855,-0.532835,0.8827309999999999,0.175009,-0.00875,-0.23625,0.8662500000000001
1741711706.5511332,-0.541009,0.898042,0.181658,0.21,-0.1225,0.83125
1741711706.554741,-0.536739,0.889563,0.181902,1.00625,0.4025,1.1462500000000002
1741711706.5573063,-0.524478,0.863455,0.169824,0.9275,0.56,1.4700000000000002
1741711706.5596323,-0.503433,0.839055,0.160796,0.6300000000000001,0.5162500000000001,1.435
1741711706.5619154,-0.490257,0.828197,0.1428009999999999,0.06125,0.21,1.4787500000000002
1741711706.5643048,-0.476166,0.824842,0.143411,-0.385,-0.06125,1.16375
1741711706.5665674,-0.4840959999999999,0.835822,0.151768,-0.7087500000000001,-0.60375,0.8575
1741711706.5687745,-0.512522,0.856135,0.162016,-0.69125,-0.665,0.77
1741711706.570991,-0.524417,0.868518,0.177754,-0.28875,-0.5075000000000001,0.74375
1741711706.5735612,-0.519964,0.877302,0.195261,0.175,0.06125,0.8750000000000001
1741711706.576202,-0.514962,0.8732759999999999,0.183732,0.4725,0.34125,0.88375
1741711706.5790825,-0.49166,0.853878,0.169153,0.385,0.14,0.455
1741711706.5813994,-0.4926359999999999,0.8371029999999999,0.169763,0.21875,0.04375,0.4025
1741711706.583876,-0.504287,0.838872,0.161711,-0.16625,-0.105,0.6125
1741711706.586241,-0.506849,0.8464969999999999,0.162809,-0.56,-0.16625,0.7612500000000001
1741711706.5884705,-0.504409,0.860161,0.165981,-0.48125,-0.21875,0.7087500000000001
1741711706.5907042,-0.505019,0.87291,0.1674449999999999,-0.21875,-0.0525,0.8662500000000001
1741711706.5931382,-0.515145,0.870348,0.166164,-0.2275,-0.18375,0.7525000000000001
1741711706.5966756,-0.509716,0.865834,0.163541,-0.245,-0.4375,0.4025
1741711706.6002994,-0.503738,0.852353,0.167872,-0.6825000000000001,-0.5687500000000001,-0.105
1741711706.602697,-0.496174,0.846436,0.159088,-0.91875,-0.525,-0.34125
1741711706.6050386,-0.490684,0.8404579999999999,0.1594539999999999,-1.39125,-0.56,-0.39375
1741711706.607542,-0.4979429999999999,0.843203,0.17385,-1.7937500000000002,-0.7262500000000001,-0.665
1741711706.609827,-0.507581,0.8529019999999999,0.181597,-1.54875,-0.7000000000000001,-0.4375
1741711706.6120255,-0.518378,0.8538169999999999,0.184891,-1.26875,-0.37625,-0.18375
1741711706.614396,-0.526247,0.859856,0.182695,-0.8225000000000001,-0.2275,0.0875
1741711706.6176455,-0.527223,0.868213,0.182085,0.0875,-0.14,0.49875
1741711706.6203568,-0.528138,0.870897,0.185257,0.42875,0.02625,0.945
1741711706.6227858,-0.525942,0.865529,0.184281,0.6562500000000001,0.23625,1.2425000000000002
1741711706.624978,-0.517158,0.8608319999999999,0.184464,0.805,0.175,1.49625
1741711706.6271927,-0.509045,0.865041,0.178608,0.7350000000000001,0.11375,1.44375
1741711706.6297653,-0.51484,0.866383,0.169397,0.58625,0.09625,1.37375
1741711706.6322858,-0.506605,0.869494,0.170739,0.27125,-0.035,1.11125
1741711706.6346998,-0.51972,0.865407,0.176473,0.34125,0.105,1.09375
1741711706.6375835,-0.513254,0.8501569999999999,0.163602,0.39375,0.5775,1.11125
1741711706.6398392,-0.500993,0.845887,0.158051,0.14,0.245,1.09375
1741711706.6420622,-0.4961129999999999,0.841129,0.156404,-0.00875,-0.0175,0.93625
1741711706.644256,-0.4898909999999999,0.842288,0.165188,-0.16625,0.00875,0.8137500000000001
1741711706.646823,-0.49959,0.853573,0.177693,-0.105,-0.2275,0.7000000000000001
1741711706.6491823,-0.509228,0.855281,0.177266,-0.02625,-0.28875,0.91875
1741711706.651761,-0.517524,0.865529,0.174826,0.02625,-0.13125,0.98875
1741711706.6549792,-0.518622,0.87596,0.1776319999999999,0.20125,0.0,1.16375
1741711706.6574876,-0.515694,0.8784609999999999,0.1794619999999999,0.34125,0.0875,1.04125
1741711706.65998,-0.512217,0.869006,0.175619,0.35875,0.25375,1.05
1741711706.6627915,-0.507764,0.861076,0.169397,0.455,0.21,1.00625
1741711706.665218,-0.498126,0.848998,0.163907,0.14,0.09625,0.98
1741711706.6678455,-0.490928,0.846985,0.14335,-0.0525,0.18375,0.9275
1741711706.6710963,-0.523807,0.872788,0.099125,-1.2075,-0.665,1.18125
1741711706.673802,-0.519903,0.801296,0.28304,-0.74375,-1.8375,-0.02625
1741711706.676412,-0.501237,0.840824,0.32025,2.24875,1.7500000000000002,1.33875
1741711706.6788523,-0.461831,0.861015,0.150365,3.4037500000000005,2.2575000000000003,3.21125
1741711706.6815486,-0.4399929999999999,0.774273,0.0709429999999999,-0.1575,-2.0650000000000004,0.07875
1741711706.6845114,-0.518805,0.792451,0.172874,-0.7612500000000001,-2.205,-1.2775
1741711706.6881535,-0.594994,0.945256,0.141947,3.858750000000001,4.165,3.22875
1741711706.6915364,-0.536312,0.931714,0.10553,1.89,-1.8200000000000005,2.9662500000000005
1741711706.694174,-0.505751,0.909205,0.288164,0.93625,-1.4525,2.345
1741711706.6966765,-0.548329,0.886818,0.2087419999999999,4.348750000000001,2.8000000000000003,3.7625
1741711706.699844,-0.506056,0.833687,0.040992,-0.1575,-0.7000000000000001,2.65125
1741711706.7026246,-0.449814,0.843081,0.123769,-3.98125,-3.4912500000000004,-0.8575
1741711706.704897,-0.47519,0.904447,0.203862,-3.535,-2.12625,-0.30625
1741711706.7073662,-0.499834,0.918172,0.109983,-2.8525000000000005,-0.30625,-0.7875000000000001
1741711706.7101417,-0.4994679999999999,0.83875,0.1222439999999999,-3.42125,-3.08875,-2.31
1741711706.712845,-0.443226,0.770369,0.152561,-4.348750000000001,0.42875,-2.9400000000000004
1741711706.7153971,-0.443592,0.7878149999999999,0.137982,-5.3025,-1.21625,-3.613750000000001
1741711706.718541,-0.485987,0.768234,0.169275,-5.416250000000001,-2.86125,-2.56375
1741711706.7212656,-0.446947,0.787144,0.161772,-4.768750000000001,-1.12,-2.8262500000000004
1741711706.723807,-0.494527,0.881755,0.198006,-5.040000000000001,-2.8875,-3.0362500000000003
1741711706.7263498,-0.556137,0.8769359999999999,0.249246,-2.9400000000000004,-1.33,-1.89
1741711706.729129,-0.573461,0.898347,0.213805,-1.5225000000000002,0.32375,-0.88375
1741711706.731587,-0.539789,0.920856,0.19337,-0.9275,-0.91,-1.3037500000000002
1741711706.734181,-0.551989,0.909205,0.2136829999999999,0.1925,-1.39125,-1.4525
1741711706.7379725,-0.537349,0.841495,0.2022759999999999,0.7875000000000001,1.81125,0.2625
1741711706.74291,-0.508313,0.841617,0.173911,-0.32375,-0.6212500000000001,0.98875
1741711706.745427,-0.5145959999999999,0.8732759999999999,0.199592,0.32375,0.18375,1.155
1741711706.7481527,-0.531676,0.891759,0.179523,1.7587500000000005,0.42,1.8025
1741711706.751697,-0.543632,0.844118,0.163602,1.65375,-0.1225,1.6975000000000002
1741711706.7540588,-0.55937,0.855281,0.205387,1.8025,0.8575,2.30125
1741711706.7565656,-0.528199,0.8873059999999999,0.2149029999999999,2.6075000000000004,1.96,3.1325000000000003
1741711706.7589145,-0.500261,0.888587,0.195078,2.9575000000000005,1.0675,3.0712500000000005
1741711706.761575,-0.4877559999999999,0.858209,0.1822679999999999,2.9925,0.7262500000000001,2.4062500000000004
1741711706.7644086,-0.5401549999999999,0.8550369999999999,0.1650049999999999,2.765,1.3037500000000002,3.3075
1741711706.767427,-0.540948,0.88633,0.1465219999999999,2.135,1.16375,4.62875
1741711706.769966,-0.49837,0.8945649999999999,0.155672,2.07375,0.63875,4.138750000000001
1741711706.772422,-0.501542,0.897432,0.16226,2.2662500000000003,0.6562500000000001,3.43875
1741711706.774789,-0.523624,0.88511,0.136091,2.0387500000000003,0.90125,3.605
1741711706.7775917,-0.478301,0.844728,0.119987,1.05875,-0.32375,2.4675
1741711706.780427,-0.447191,0.837225,0.1231589999999999,-1.2775,-1.1987500000000002,1.16375
1741711706.7831702,-0.4498749999999999,0.827892,0.142313,-2.1875,-0.9625,0.18375
1741711706.7864387,-0.458598,0.804163,0.137677,-3.08875,-1.4875,-1.54
1741711706.7894208,-0.45994,0.806908,0.125294,-4.296250000000001,-1.61,-2.975
1741711706.7927537,-0.461221,0.809226,0.183,-4.996250000000001,-1.8200000000000005,-3.3950000000000005
1741711706.7953289,-0.479948,0.819962,0.180926,-4.0687500000000005,-1.225,-2.9575000000000005
1741711706.7981772,-0.494527,0.82594,0.175558,-2.9400000000000004,-1.2075,-2.6775
1741711706.805607,-0.545828,0.873642,0.24217,-1.3475,-0.6300000000000001,-1.6362500000000002
1741711706.8079488,-0.544608,0.876753,0.208315,0.11375,0.035,-0.6562500000000001
1741711706.8106391,-0.526125,0.881999,0.172874,0.35,0.21875,-0.5687500000000001
1741711706.813254,-0.544852,0.897493,0.173911,-0.245,-0.4025,-0.21
1741711706.8161848,-0.553819,0.8948699999999999,0.210755,0.7262500000000001,-0.06125,0.28875
1741711706.818514,-0.5638839999999999,0.885415,0.217526,1.65375,1.2075,1.32125
1741711706.820938,-0.548878,0.865407,0.178303,2.00375,1.3125000000000002,1.8025
1741711706.8239088,-0.51362,0.851316,0.140117,1.505,0.83125,1.8725000000000005
1741711706.826691,-0.506178,0.85644,0.162931,0.6562500000000001,0.14875,1.89
1741711706.829176,-0.519415,0.86681,0.199592,1.4875,-0.0875,2.1437500000000003
1741711706.8316543,-0.535885,0.87596,0.20252,1.9862500000000003,0.8137500000000001,2.7300000000000004
1741711706.8341174,-0.5386299999999999,0.878949,0.160857,1.5837500000000002,0.7000000000000001,3.0187500000000003
1741711706.837762,-0.542107,0.892735,0.191113,1.3562500000000002,-0.21875,2.9925
1741711706.8401124,-0.538813,0.893101,0.199958,1.855,0.74375,3.3862500000000004
1741711706.842452,-0.5231359999999999,0.8851709999999999,0.177571,2.4675,1.3125000000000002,3.82375
1741711706.8455348,-0.491538,0.857538,0.157807,1.7587500000000005,0.42,3.535
1741711706.8479764,-0.480802,0.836981,0.150853,0.90125,0.5075000000000001,3.12375
1741711706.8557062,-0.472811,0.833199,0.146156,0.21,0.42,2.87
1741711706.8580637,-0.466528,0.82716,0.123342,-1.00625,-0.3675,0.8137500000000001
1741711706.860355,-0.451156,0.824476,0.141642,-2.0475000000000003,-1.1987500000000002,-0.49875
1741711706.863084,-0.462258,0.817888,0.165798,-2.2837500000000004,-1.33875,-1.7587500000000005
1741711706.8654292,-0.456768,0.804895,0.1588439999999999,-1.995,-0.7525000000000001,-2.2225
1741711706.867947,-0.448838,0.800625,0.141398,-2.44125,-1.0675,-3.12375
1741711706.8707676,-0.465064,0.811117,0.14091,-3.82375,-1.8025,-3.5875000000000004
1741711706.8731894,-0.481778,0.828441,0.174765,-3.71875,-1.715,-3.68375
1741711706.8755822,-0.519598,0.8553419999999999,0.193187,-3.22875,-0.95375,-2.98375
1741711706.8780522,-0.539789,0.879193,0.195871,-2.31875,-1.12,-2.4675
1741711706.8804126,-0.550647,0.894321,0.213439,-1.5575,-1.0325000000000002,-2.21375
1741711706.8828046,-0.552721,0.897371,0.216367,-0.805,-0.63875,-1.4175000000000002
1741711706.8851435,-0.553941,0.896822,0.216306,-0.28,-0.09625,-0.5687500000000001
1741711706.8878186,-0.557174,0.889746,0.198738,0.1575,0.0875,2.23125
1741711706.8907452,-0.544608,0.886147,0.183671,0.49,0.20125,0.7962500000000001
1741711706.895713,-0.541253,0.8882209999999999,0.173972,0.1225,0.11375,1.56625
1741711706.898548,-0.533079,0.881999,0.193797,0.9975,0.35875,2.45
1741711706.9013686,-0.5389349999999999,0.873032,0.164273,1.44375,0.8750000000000001,2.6950000000000003
1741711706.904118,-0.518012,0.870287,0.152866,1.12875,-0.13125,2.5200000000000005
1741711706.9071152,-0.515267,0.8596119999999999,0.180682,0.88375,0.34125,2.63375
1741711706.9102397,-0.505385,0.849303,0.181231,1.37375,0.7262500000000001,2.8262500000000004
1741711706.913892,-0.499041,0.851133,0.16165,0.77875,-0.04375,2.66
1741711706.9167905,-0.501176,0.852841,0.1785469999999999,0.5075000000000001,-0.06125,2.6775
1741711706.9194906,-0.509716,0.858026,0.1776319999999999,0.8225000000000001,0.18375,2.4937500000000004
1741711706.9222686,-0.500444,0.853024,0.165188,1.2075,0.49,0.02625
1741711706.9249277,-0.47397,0.841678,0.151646,0.9625,0.4025,1.7412500000000002
1741711706.927487,-0.469334,0.83326,0.151707,0.11375,0.07,1.0675
1741711706.930219,-0.465064,0.828502,0.1579289999999999,-0.1575,-0.09625,0.69125
1741711706.9333148,-0.467443,0.820145,0.148901,-0.49875,-2.2225,0.13125
1741711706.9369135,-0.462868,0.8174,0.133834,-1.3475,-0.8750000000000001,-1.0325000000000002
1741711706.9402845,-0.4883659999999999,0.834724,0.16043,-1.91625,-1.09375,-1.89
1741711706.9430263,-0.493734,0.8383229999999999,0.173667,-1.6275000000000002,-0.7612500000000001,-2.24
1741711706.9456909,-0.501054,0.8480219999999999,0.166042,-1.7412500000000002,-0.58625,-2.4850000000000003
1741711706.9483538,-0.504775,0.868213,0.163175,-1.995,-0.7962500000000001,-2.2225
1741711706.950959,-0.518134,0.870897,0.177571,-2.3275,-0.8925000000000001,-2.10875
1741711706.9535613,-0.5438149999999999,0.874984,0.194346,-2.1525000000000003,-0.8137500000000001,-1.67125
1741711706.9573026,-0.552965,0.885354,0.20008,-1.015,-0.5425000000000001,-0.63875
1741711706.9608843,-0.535946,0.893406,0.201544,-0.21,-0.1575,0.0525
1741711706.964094,-0.519049,0.901702,0.2072169999999999,0.20125,-0.21875,1.155
1741711706.9666862,-0.510692,0.8711409999999999,0.2056919999999999,1.5925000000000002,0.41125,1.6887500000000002
1741711706.969404,-0.4982479999999999,0.848266,0.167567,1.6800000000000002,0.95375,0.805
1741711706.972299,-0.53009,0.8133739999999999,0.1609789999999999,1.3825,1.0850000000000002,0.07875
1741711706.9758265,-0.491843,0.810568,0.167811,0.7087500000000001,1.1900000000000002,1.37375
1741711706.9792612,-0.46543,0.81679,0.154574,0.8487500000000001,0.5075000000000001,1.4700000000000002
1741711706.9818268,-0.4751289999999999,0.8392379999999999,0.135542,0.805,-2.1612500000000003,0.91875
1741711706.9845357,-0.49837,0.872727,0.1301739999999999,-0.21,-0.7612500000000001,-0.07875
1741711706.9871671,-0.547719,0.8988349999999999,0.160552,-0.41125,-0.8750000000000001,-0.6825000000000001
1741711706.9898844,-0.573644,0.919941,0.188795,-0.1575,-0.385,-0.315
1741711706.9924796,-0.58438,0.925553,0.178791,-0.23625,0.23625,1.28625
1741711706.994881,-0.551257,0.923418,0.1717759999999999,-0.945,-0.39375,1.81125
1741711706.998004,-0.541802,0.913902,0.173667,-1.1900000000000002,-1.05875,2.2225
1741711707.0008671,-0.533933,0.894321,0.190442,-1.05875,-0.88375,2.5112500000000004
1741711707.0041814,-0.558577,0.885232,0.1650049999999999,-0.5775,-0.49,3.10625
1741711707.0068562,-0.536617,0.880413,0.167018,-0.8662500000000001,-0.44625,4.01625
1741711707.009526,-0.526735,0.88389,0.167811,-0.41125,-0.5775,3.92875
1741711707.0120676,-0.505263,0.87352,0.183854,0.04375,-0.91,3.9025
1741711707.0144396,-0.4923309999999999,0.8407629999999999,0.194773,0.28,-0.525,4.0512500000000005
1741711707.0169592,-0.458659,0.79605,0.19154,0.42,-0.00875,3.815
1741711707.0196865,-0.424804,0.771589,0.169702,0.2275,0.25375,2.9487500000000004
1741711707.023132,-0.402173,0.750727,0.1606739999999999,0.385,0.42,0.90125
1741711707.0267172,-0.407663,0.7543259999999999,0.137433,-0.16625,0.3675,-0.56
1741711707.0292864,-0.435296,0.774822,0.138897,-0.77875,0.09625,-1.505
1741711707.0320146,-0.4529249999999999,0.795928,0.167079,-0.665,-0.455,-2.1700000000000004
1741711707.0348597,-0.470737,0.8161189999999999,0.190381,0.14,0.3325,-2.5112500000000004
1741711707.0375135,-0.4751289999999999,0.828441,0.1776319999999999,0.7175,0.6475000000000001,-3.1850000000000005
1741711707.0401947,-0.466406,0.820816,0.153781,0.5337500000000001,0.6300000000000001,-4.03375
1741711707.0427775,-0.493124,0.841251,0.14213,-0.90125,-0.0875,-4.38375
1741711707.046157,-0.53192,0.879193,0.159393,-1.28625,-1.015,-3.71875
1741711707.0494547,-0.590419,0.971974,0.173362,-1.91625,-0.63875,-0.37625
1741711707.0521224,-0.621773,0.999668,0.198311,-1.6275000000000002,-1.11125,-1.04125
1741711707.054567,-0.637877,0.989664,0.2041059999999999,-0.1925,-0.5075000000000001,0.16625
1741711707.0572538,-0.6189669999999999,0.964837,0.2010559999999999,0.1225,0.1575,1.2950000000000002
1741711707.0600443,-0.600789,0.934276,0.175924,0.07875,-0.06125,2.3625000000000003
1741711707.0626185,-0.565836,0.914512,0.1708609999999999,-0.56,-0.60375,3.640000000000001
1741711707.0652175,-0.556625,0.916037,0.1782419999999999,-0.77,-1.18125,4.2875000000000005
1741711707.0686464,-0.551562,0.91561,0.183732,-0.23625,-1.32125,4.6025
1741711707.0717692,-0.536861,0.8821209999999999,0.186721,0.34125,-0.35,5.13625
1741711707.075369,-0.484828,0.828136,0.174765,0.88375,0.16625,5.13625
1741711707.0781882,-0.434625,0.781532,0.165737,1.0237500000000002,0.0,4.17375
1741711707.0808656,-0.405589,0.75579,0.168665,0.7087500000000001,0.035,3.4037500000000005
1741711707.0835185,-0.396256,0.740723,0.162504,0.16625,0.385,2.35375
1741711707.086695,-0.407236,0.744444,0.1431059999999999,-0.35,-0.21875,0.46375
1741711707.0898125,-0.433527,0.771772,0.152805,-0.665,-0.035,-1.00625
1741711707.0924797,-0.442189,0.792939,0.175131,-0.385,0.42,-1.5837500000000002
1741711707.0981762,-0.4682969999999999,0.816851,0.170312,-0.105,0.20125,-2.79125
1741711707.1011128,-0.493124,0.836066,0.16958,-0.27125,0.3325,-2.89625
1741711707.1038084,-0.505812,0.854488,0.168543,-0.37625,0.2975,-3.01
1741711707.1071095,-0.543876,0.888709,0.167018,-0.55125,-0.0175,-2.6075000000000004
1741711707.1100206,-0.557723,0.911035,0.178364,-0.6125,-0.4725,-2.555
1741711707.1137848,-0.590419,0.94916,0.174582,-0.98875,-0.30625,-1.155
1741711707.116835,-0.597739,0.95953,0.193004,-0.11375,-0.1575,0.39375
1741711707.1199353,-0.577426,0.938668,0.186965,0.35875,0.1225,1.4087500000000002
1741711707.1223683,-0.559675,0.915549,0.170312,0.14875,-0.1575,1.95125
1741711707.1250854,-0.542046,0.88877,0.163053,-0.14875,-0.455,2.3625000000000003
1741711707.1277978,-0.535031,0.879498,0.1591489999999999,-0.525,-0.7000000000000001,2.6425
1741711707.1303377,-0.523014,0.883707,0.166469,-0.6825000000000001,-0.95375,2.6425
1741711707.1326685,-0.52521,0.876692,0.173118,-0.8137500000000001,-1.155,2.9925
1741711707.1379864,-0.510387,0.861259,0.176473,-0.49875,-0.2275,2.8525000000000005
1741711707.141919,-0.471042,0.8136789999999999,0.167262,-0.28,-0.32375,2.4937500000000004
1741711707.1446316,-0.456341,0.7984289999999999,0.162138,-0.55125,-0.39375,1.88125
1741711707.1475184,-0.454267,0.8008689999999999,0.169092,-0.7962500000000001,-0.6475000000000001,1.1987500000000002
1741711707.150139,-0.460794,0.8033089999999999,0.174338,-0.5075000000000001,-0.44625,0.8225000000000001
1741711707.1527195,-0.468541,0.813435,0.1764119999999999,-0.49,-0.28875,0.32375
1741711707.1559048,-0.474946,0.8267329999999999,0.177388,-0.34125,0.2625,-0.25375
1741711707.1586325,-0.48739,0.842044,0.17629,0.28875,0.55125,-0.245
1741711707.1612337,-0.4809239999999999,0.8255129999999999,0.17019,0.48125,0.7000000000000001,-0.455
1741711707.1639135,-0.487573,0.830515,0.16775,0.56,0.58625,-0.7175
1741711707.1666255,-0.490684,0.833077,0.169702,0.77,0.55125,-0.7000000000000001
1741711707.169202,-0.493673,0.856013,0.161528,0.385,0.16625,-0.98
1741711707.1718397,-0.520269,0.869738,0.177754,0.09625,0.14,-1.1987500000000002
1741711707.1778233,-0.5395449999999999,0.892674,0.170373,0.04375,0.11375,-0.77875
1741711707.1809638,-0.5453399999999999,0.894199,0.169519,-0.14,0.0525,-0.30625
1741711707.183659,-0.541009,0.891698,0.163663,-0.245,0.07,0.04375
1741711707.1862197,-0.536678,0.892613,0.1609789999999999,-0.63875,-0.42,0.3675
1741711707.1887355,-0.537959,0.895846,0.167384,-0.7000000000000001,-0.69125,0.4725
1741711707.1914265,-0.547109,0.896273,0.1729959999999999,-0.93625,-0.98875,0.7262500000000001
1741711707.1940506,-0.543876,0.897249,0.1782419999999999,-1.09375,-0.69125,1.225
1741711707.1979516,-0.544242,0.892369,0.178791,-0.95375,-0.7612500000000001,1.7062500000000005
1741711707.201467,-0.523868,0.860039,0.174643,-0.665,-0.805,2.24
1741711707.2040863,-0.508252,0.854915,0.17629,-0.7350000000000001,-0.5162500000000001,2.35375
1741711707.2065475,-0.499895,0.845277,0.173667,-0.49,-0.5687500000000001,2.1700000000000004
1741711707.20914,-0.48922,0.836859,0.1717759999999999,-0.7962500000000001,-0.5075000000000001,1.9425
1741711707.2122498,-0.4772639999999999,0.82411,0.174338,-0.8137500000000001,-0.385,1.6450000000000002
1741711707.2153337,-0.475312,0.824415,0.180926,-0.665,-0.18375,1.4700000000000002
1741711707.217762,-0.477081,0.824171,0.176229,-0.21,-0.1575,1.21625
1741711707.2203338,-0.468236,0.814655,0.181658,0.035,0.14875,1.0675
1741711707.2229905,-0.464759,0.810995,0.173667,0.1225,0.23625,0.28875
1741711707.22709,-0.467748,0.8100189999999999,0.166164,0.4375,0.6125,-0.04375
1741711707.229554,-0.47458,0.820755,0.168299,0.2975,0.42,-0.6300000000000001
1741711707.2323225,-0.483425,0.8297829999999999,0.170129,0.2975,0.34125,-0.7875000000000001
1741711707.235644,-0.507337,0.847961,0.167994,0.455,0.28,-1.0237500000000002
1741711707.2380228,-0.51179,0.8605269999999999,0.171532,0.55125,0.35875,-0.8575
1741711707.2406318,-0.517463,0.884988,0.165981,0.4025,0.09625,-0.7962500000000001
1741711707.2449074,-0.53375,0.886635,0.1656149999999999,0.55125,0.175,-0.6737500000000001
1741711707.247853,-0.542229,0.891576,0.161528,-0.14,-0.06125,-0.37625
1741711707.2512963,-0.553087,0.903654,0.168604,-0.6125,-0.23625,0.1225
1741711707.2541373,-0.552965,0.907985,0.173789,-0.6737500000000001,-0.6562500000000001,0.6737500000000001
1741711707.256858,-0.555466,0.909205,0.174216,-0.77875,-0.5775,1.12
1741711707.2596748,-0.545828,0.901275,0.172508,-0.6737500000000001,-0.7087500000000001,1.3825
1741711707.2621586,-0.544669,0.8860859999999999,0.173667,-0.525,-0.6125,1.9862500000000003
1741711707.2647164,-0.523624,0.877058,0.171044,-0.7087500000000001,-0.7087500000000001,2.19625
1741711707.2673416,-0.5142909999999999,0.86498,0.169519,-0.56,-0.7875000000000001,2.3712500000000003
1741711707.272266,-0.506727,0.850523,0.1711659999999999,-0.6125,-0.42875,2.1437500000000003
1741711707.2756922,-0.483059,0.828014,0.174704,-0.6562500000000001,-0.48125,1.82875
1741711707.2783988,-0.480131,0.818071,0.169336,-0.5775,-0.21875,1.72375
1741711707.2810502,-0.4757389999999999,0.815997,0.169153,-0.35,-0.035,1.37375
1741711707.2838008,-0.466955,0.813496,0.163358,-0.175,-0.0525,0.5425000000000001
1741711707.2865634,-0.465308,0.80947,0.166591,-0.23625,0.0525,0.2625
1741711707.289261,-0.462319,0.815875,0.171593,-0.16625,0.0875,-0.4025
1741711707.2918944,-0.471408,0.820206,0.165066,0.0875,0.245,-0.525
1741711707.298,-0.501847,0.844118,0.1733009999999999,0.02625,0.1225,-1.1375000000000002
1741711707.3009195,-0.510204,0.863638,0.176229,0.35875,0.27125,-0.95375
1741711707.3036466,-0.5222209999999999,0.874069,0.181475,0.49875,-0.0525,-0.8225000000000001
1741711707.3064113,-0.523502,0.881633,0.178059,0.41125,0.1225,-0.5425000000000001
1741711707.3098931,-0.5367999999999999,0.889075,0.166896,0.28,-0.09625,-0.245
1741711707.3126104,-0.5416799999999999,0.894016,0.165676,0.0175,-0.14875,0.0
1741711707.3152902,-0.541802,0.894199,0.1708,-0.21875,-0.04375,0.39375
1741711707.319695,-0.547292,0.901336,0.171593,-0.245,-0.27125,0.91
1741711707.3224556,-0.537593,0.891393,0.168482,-0.44625,-0.35875,1.5137500000000002
1741711707.3258843,-0.526247,0.880352,0.1711659999999999,-0.4375,-0.63875,1.6450000000000002
1741711707.3286462,-0.522892,0.866505,0.16897,-0.42875,-0.63875,1.86375
1741711707.331683,-0.506605,0.8568669999999999,0.169885,-0.7350000000000001,-0.8137500000000001,1.84625
1741711707.3344915,-0.503067,0.855586,0.17202,-0.91,-0.8487500000000001,1.6450000000000002
1741711707.3371873,-0.496479,0.841617,0.170434,-1.00625,-0.34125,1.6887500000000002
1741711707.339838,-0.4941,0.8374079999999999,0.1659199999999999,-0.7262500000000001,-0.665,1.39125
1741711707.344824,-0.478728,0.8297829999999999,0.174338,-0.7087500000000001,-0.42875,1.16375
1741711707.348324,-0.4809239999999999,0.819718,0.171654,-0.4725,-0.21,0.6212500000000001
1741711707.3511424,-0.471896,0.820877,0.1720809999999999,-0.5950000000000001,-0.175,0.245
1741711707.3538067,-0.4803139999999999,0.824842,0.175497,-0.41125,0.0175,-0.035
1741711707.3566694,-0.486963,0.833687,0.17202,-0.14875,0.11375,-0.35
1741711707.3593757,-0.491355,0.835761,0.174948,-0.1575,0.09625,-0.56
1741711707.3619883,-0.50325,0.847168,0.173118,-0.00875,0.35,-0.5950000000000001
1741711707.3645892,-0.507581,0.853878,0.172447,0.4025,0.35875,-0.455
1741711707.369311,-0.51545,0.860649,0.169153,0.4025,-0.02625,-0.55125
1741711707.3726623,-0.5222209999999999,0.876204,0.168665,0.455,0.07875,-0.175
1741711707.3754618,-0.528687,0.880413,0.168116,0.20125,0.09625,0.0875
1741711707.378317,-0.535397,0.884683,0.167994,0.0175,-0.1225,0.18375
1741711707.3810472,-0.536373,0.889685,0.17019,-0.07875,-2.2225,0.5425000000000001
1741711707.3837764,-0.543388,0.891881,0.171288,-0.35875,-0.105,0.90125
1741711707.386439,-0.538142,0.888282,0.1705559999999999,-0.385,-0.1575,1.2775
1741711707.38896,-0.527406,0.8845,0.173057,-0.245,-0.35875,1.33875
1741711707.3946345,-0.516487,0.868396,0.170007,-0.175,-0.5425000000000001,1.7675
1741711707.3978417,-0.506178,0.8605269999999999,0.170312,-0.58625,-0.6475000000000001,1.81125
1741711707.400594,-0.502152,0.854915,0.1729959999999999,-0.63875,-0.55125,1.7325000000000002
1741711707.403242,-0.501237,0.845826,0.18605,-0.455,-0.245,1.82875
1741711707.405975,-0.492087,0.83631,0.168909,-0.665,-0.46375,1.4087500000000002
1741711707.4091382,-0.479155,0.833016,0.173789,-0.56,-0.42,1.0762500000000002
1741711707.4117873,-0.48312,0.8285629999999999,0.172935,-0.5425000000000001,-0.16625,0.91
1741711707.4167137,-0.479948,0.826306,0.172325,-0.5162500000000001,-0.21875,0.21
1741711707.4201963,-0.486902,0.828929,0.1761069999999999,-0.34125,-0.0875,-0.11375
1741711707.42314,-0.484889,0.834114,0.170739,-0.02625,0.02625,-0.34125
1741711707.4259586,-0.488732,0.834602,0.172264,-0.23625,0.14875,-0.39375
1741711707.428648,-0.502274,0.849486,0.16897,-0.11375,0.1575,-0.6475000000000001
1741711707.4313395,-0.508374,0.854854,0.171837,0.1925,0.0175,-0.5950000000000001
1741711707.434098,-0.515938,0.860771,0.156831,0.13125,0.0175,-0.37625
1741711707.4367447,-0.519293,0.87413,0.171898,0.385,0.04375,-0.39375
1741711707.4409704,-0.52826,0.876509,0.170739,0.105,0.0,-0.1925
1741711707.444645,-0.532835,0.886574,0.171288,0.02625,-0.04375,0.315
1741711707.447421,-0.539179,0.888648,0.171532,-0.1225,-0.14,0.58625
1741711707.4502258,-0.538386,0.887428,0.172447,-0.28,-0.245,0.95375
1741711707.4528494,-0.5364949999999999,0.88572,0.170678,-0.35,-0.11375,1.2425000000000002
1741711707.4555728,-0.529541,0.883768,0.174521,-0.2975,-0.5337500000000001,1.5312500000000002
1741711707.4582355,-0.524295,0.8723609999999999,0.173545,-0.28,-0.455,1.77625
1741711707.4609108,-0.5164259999999999,0.868579,0.170129,-0.30625,-0.37625,1.86375
1741711707.466141,-0.503738,0.85156,0.171837,-0.34125,-0.35875,1.89875
1741711707.4696653,-0.495381,0.841373,0.167384,-0.7262500000000001,-0.37625,1.6625
1741711707.472506,-0.487207,0.835212,0.171105,-0.805,-0.44625,1.0325000000000002
1741711707.4753551,-0.483425,0.830515,0.167506,-0.7087500000000001,-0.28,0.9275
1741711707.4780672,-0.4800089999999999,0.8282579999999999,0.168543,-0.7087500000000001,-0.3325,0.6737500000000001
1741711707.480879,-0.481046,0.825696,0.169214,-0.6212500000000001,-0.1225,0.175
1741711707.483807,-0.481534,0.824964,0.16958,-0.5775,0.02625,0.00875
1741711707.489996,-0.483303,0.8319179999999999,0.169519,-0.4725,-0.0875,-0.4025
1741711707.4937754,-0.496967,0.845948,0.18605,-0.2275,-0.09625,-0.69125
1741711707.4969473,-0.511363,0.860405,0.173484,-0.07875,-0.0175,-0.7875000000000001
1741711707.500587,-0.521672,0.86681,0.171654,0.1225,0.07875,-0.5775
1741711707.5034645,-0.524173,0.8748009999999999,0.17507,0.04375,-2.1437500000000003,-0.1575
1741711707.5063126,-0.527833,0.8796809999999999,0.172447,-0.09625,-0.0525,-0.04375
1741711707.508859,-0.535458,0.881999,0.169702,0.02625,-0.11375,0.3675
1741711707.5114906,-0.5398499999999999,0.880413,0.170434,-0.21,-0.105,0.48125
1741711707.514318,-0.535397,0.8845,0.178669,-0.16625,-0.1225,0.98875
1741711707.520208,-0.530029,0.879803,0.1699459999999999,-0.06125,-0.30625,1.4700000000000002
1741711707.5235238,-0.521977,0.859124,0.174765,-0.0875,-0.2275,1.8025
1741711707.526489,-0.5158159999999999,0.865895,0.1662249999999999,-0.1925,-0.35,1.7937500000000002
1741711707.5291874,-0.504958,0.858026,0.16897,-0.175,-0.49,1.81125
1741711707.5319016,-0.513864,0.848266,0.167079,-0.25375,-0.35875,1.65375
1741711707.5345726,-0.498065,0.841373,0.169275,-0.49,-0.27125,1.5750000000000002
1741711707.5370731,-0.488549,0.839055,0.171654,-0.37625,-0.41125,1.2600000000000002
1741711707.5423892,-0.488793,0.834785,0.17385,-0.4725,-0.16625,0.91875
1741711707.545988,-0.484828,0.8316129999999999,0.170129,-0.63875,-0.18375,0.5337500000000001
1741711707.548695,-0.4819,0.833077,0.168909,-0.41125,0.0,0.1225
1741711707.5514684,-0.486414,0.833992,0.1705559999999999,-0.4375,-0.07875,-0.21875
1741711707.5542214,-0.49227,0.8346629999999999,0.171654,-0.4725,-0.02625,-0.35
1741711707.55681,-0.489708,0.842471,0.173728,-0.245,-0.07,-0.37625
1741711707.559347,-0.501725,0.852475,0.169458,-0.245,-0.09625,-0.56
1741711707.5620382,-0.51118,0.858514,0.168726,-0.0525,-0.13125,-0.5775
1741711707.5680656,-0.523563,0.8708359999999999,0.1717759999999999,-0.07875,-0.06125,-0.28
1741711707.5709498,-0.523258,0.876265,0.171715,-0.00875,-0.02625,0.0
1741711707.5735097,-0.526552,0.8778509999999999,0.1720809999999999,-0.0175,-0.035,0.1925
1741711707.5762885,-0.528138,0.879498,0.173789,-0.21,-0.21875,0.37625
1741711707.579744,-0.529724,0.883524,0.174155,-0.3325,-0.2975,0.7350000000000001
1741711707.5835338,-0.528748,0.880962,0.173423,-0.245,-0.2275,1.0850000000000002
1741711707.5864582,-0.528321,0.8766309999999999,0.171532,-0.28875,-0.23625,1.2950000000000002
1741711707.5899968,-0.519964,0.8729709999999999,0.174033,-0.0875,-0.35875,1.39125
1741711707.592935,-0.513193,0.865712,0.1720809999999999,-0.23625,-0.4025,1.61875
1741711707.595792,-0.511119,0.856013,0.176229,-0.3325,-0.385,1.6975000000000002
1741711707.6005132,-0.500078,0.8468019999999999,0.16958,-0.20125,-0.30625,1.5750000000000002
1741711707.6031573,-0.4935509999999999,0.842776,0.173362,-0.5075000000000001,-0.41125,1.23375
1741711707.6063943,-0.490135,0.841983,0.172325,-0.35875,-0.1925,1.05
1741711707.6111712,-0.487817,0.8334429999999999,0.168482,-0.28875,-0.1925,0.7525000000000001
1741711707.614622,-0.486658,0.833992,0.169336,-0.37625,-0.07,0.34125
1741711707.6174824,-0.490257,0.837164,0.168787,-0.245,-0.0175,-0.0875
1741711707.6201746,-0.493734,0.839299,0.168909,-0.4025,0.07,-0.11375
1741711707.62286,-0.495076,0.8464969999999999,0.174216,-0.34125,0.04375,-0.25375
1741711707.625609,-0.501725,0.8529019999999999,0.172447,-0.1575,-0.21,-0.35
1741711707.628376,-0.511546,0.85949,0.17141,-0.0525,-0.11375,-0.315
1741711707.6310678,-0.513864,0.867481,0.177144,-0.04375,-0.1575,-0.30625
1741711707.63598,-0.518927,0.8705309999999999,0.170739,-0.13125,-0.07,-0.105
1741711707.6388614,-0.522099,0.874618,0.17202,-0.14875,-0.1575,0.2275
1741711707.6416893,-0.524478,0.878705,0.174704,-0.21,-0.11375,0.1575
1741711707.6443355,-0.532225,0.8787659999999999,0.169763,-0.46375,-0.25375,0.5775
1741711707.647119,-0.532103,0.881694,0.174338,-0.5075000000000001,-0.2975,0.8487500000000001
1741711707.649895,-0.529053,0.878095,0.174582,-0.30625,-0.3325,1.12875
1741711707.6522677,-0.524844,0.875045,0.17263,-0.175,-0.2625,1.3037500000000002
1741711707.6548045,-0.518805,0.870653,0.177266,-0.1925,-0.385,1.3825
1741711707.6608503,-0.510448,0.8568669999999999,0.173972,-0.34125,-0.39375,1.56625
1741711707.6637092,-0.502701,0.851194,0.174643,-0.35,-0.28875,1.4787500000000002
1741711707.6664102,-0.495137,0.848266,0.172203,-0.21,-0.21875,1.39125
1741711707.669054,-0.497455,0.845399,0.174277,-0.1225,-0.21,1.12875
1741711707.6717138,-0.493856,0.840275,0.173789,-0.2975,-0.105,1.05875
1741711707.6749568,-0.49044,0.8380179999999999,0.168604,-0.14,0.00875,0.95375
1741711707.677572,-0.485743,0.836005,0.172874,-0.14,0.00875,0.6300000000000001
1741711707.6832068,-0.4914159999999999,0.839055,0.169641,-0.04375,0.06125,0.18375
1741711707.6860533,-0.498492,0.839116,0.171288,-0.21,0.04375,-0.00875
1741711707.6887202,-0.500017,0.849181,0.169031,-0.14875,0.1225,-0.02625
1741711707.691656,-0.502457,0.852536,0.170983,0.06125,-0.11375,-0.0875
1741711707.694224,-0.507947,0.8574769999999999,0.16958,-0.00875,-0.07,-0.2275
1741711707.696758,-0.516609,0.861198,0.184281,-0.0875,-0.1225,-0.1925
1741711707.6994767,-0.520879,0.867908,0.1711659999999999,-0.1225,-0.1225,-0.14875
1741711707.705232,-0.526308,0.876509,0.171837,-0.28,-0.14,0.315
1741711707.7082615,-0.522404,0.878034,0.174033,-0.3675,-0.23625,0.44625
1741711707.7110157,-0.522953,0.876814,0.171654,-0.30625,-0.245,0.6212500000000001
1741711707.713714,-0.523319,0.8751059999999999,0.175009,-0.46375,-0.27125,0.9275
1741711707.7163887,-0.524234,0.8699209999999999,0.172569,-0.48125,-0.39375,0.9275
1741711707.7189426,-0.522709,0.8708359999999999,0.171898,-0.23625,-0.27125,1.23375
1741711707.7214837,-0.514108,0.866139,0.168299,-0.35,-0.2975,1.2425000000000002
1741711707.7261536,-0.50813,0.860161,0.174887,-0.3325,-0.35875,1.3037500000000002
1741711707.7298331,-0.502457,0.850401,0.172935,-0.49,-0.28,1.26875
1741711707.7325754,-0.501359,0.848144,0.171959,-0.44625,-0.35875,1.1025
1741711707.73523,-0.497089,0.84058,0.1726909999999999,-0.4725,-0.14875,0.91
1741711707.737796,-0.495564,0.840275,0.168543,-0.34125,-0.1225,0.8662500000000001
1741711707.7400796,-0.49166,0.841251,0.172264,-0.34125,-0.1575,0.6562500000000001
1741711707.742544,-0.488427,0.839726,0.172874,-0.2625,0.00875,0.60375
1741711707.7474303,-0.495381,0.837347,0.169824,-0.20125,-0.0525,0.2625
1741711707.7507102,-0.499224,0.845155,0.171044,-0.21,0.09625,0.16625
1741711707.7535472,-0.503799,0.848205,0.171532,-0.00875,-0.0875,0.07875
1741711707.7563782,-0.501176,0.856318,0.169702,0.00875,0.02625,0.13125
1741711707.758824,-0.50935,0.860039,0.168177,-0.02625,-0.06125,-0.04375
1741711707.761532,-0.515999,0.864126,0.170312,0.0175,-0.11375,-0.00875
1741711707.7643194,-0.514352,0.8651019999999999,0.1729959999999999,-0.04375,-0.06125,0.13125
1741711707.7668734,-0.519598,0.864553,0.174033,-0.1225,-0.13125,0.27125
1741711707.770728,-0.5173409999999999,0.871812,0.168177,-0.34125,-0.14,0.34125
1741711707.7740765,-0.520147,0.874984,0.171044,-0.245,-0.16625,0.455
1741711707.7765653,-0.522587,0.872788,0.170434,-0.44625,-0.23625,0.60375
1741711707.779319,-0.5219159999999999,0.873093,0.166774,-0.3675,-0.49875,0.7612500000000001
1741711707.7821877,-0.518622,0.869311,0.173118,-0.44625,-0.27125,1.05875
1741711707.7848313,-0.5185609999999999,0.869372,0.171593,-0.32375,-0.2975,1.1725
1741711707.787548,-0.513437,0.867481,0.172874,-0.4025,-0.455,0.98
1741711707.790244,-0.509228,0.8596119999999999,0.174216,-0.28875,-0.455,1.23375
1741711707.7951417,-0.508191,0.856135,0.187148,-0.42,-0.32375,1.0762500000000002
1741711707.7989209,-0.4958079999999999,0.845582,0.1729959999999999,-0.49,-0.2275,0.91875
1741711707.8024657,-0.494771,0.842044,0.173362,-0.46375,-0.20125,0.7962500000000001
1741711707.805163,-0.492148,0.841556,0.177693,-0.4375,-0.14875,0.6475000000000001
1741711707.8078911,-0.495076,0.8389329999999999,0.169885,-0.34125,-0.02625,0.48125
1741711707.8105228,-0.49715,0.845155,0.169336,-0.18375,-0.07875,0.39375
1741711707.8130617,-0.496235,0.8461919999999999,0.175009,-0.105,-0.06125,0.21875
1741711707.8157651,-0.506361,0.845826,0.170312,-0.0875,0.1225,0.3325
1741711707.8228366,-0.508252,0.85766,0.1708,0.04375,0.0525,0.1575
1741711707.8268776,-0.510387,0.86315,0.170312,0.0175,0.04375,0.20125
1741711707.8305972,-0.518439,0.865773,0.169519,-0.00875,0.06125,0.175
1741711707.8340588,-0.5185,0.866566,0.169031,-0.0525,-0.035,0.49
1741711707.8374758,-0.519415,0.871019,0.167506,-0.16625,-0.14875,0.6562500000000001
1741711707.8408546,-0.517829,0.874679,0.173057,-0.245,-0.21,0.7525000000000001
1741711707.844187,-0.52277,0.86742,0.169397,-0.34125,-0.1925,0.8225000000000001
1741711707.8474164,-0.518378,0.867664,0.1702509999999999,-0.315,-0.385,1.015
1741711707.8517396,-0.515389,0.8635769999999999,0.169092,-0.49875,-0.385,1.0675
1741711707.85507,-0.510021,0.844606,0.172569,-0.35875,-0.41125,1.1025
1741711707.858736,-0.50691,0.854305,0.171532,-0.41125,-0.35,1.1025
1741711707.8630333,-0.4970279999999999,0.847534,0.172508,-0.6212500000000001,-0.23625,0.7962500000000001
1741711707.8661993,-0.496479,0.845155,0.169641,-0.5075000000000001,-0.315,0.74375
1741711707.8688705,-0.498492,0.845704,0.170922,-0.4725,-0.35,0.5075000000000001
1741711707.8716323,-0.500627,0.857233,0.174826,-0.42875,-0.18375,0.55125
1741711707.8742468,-0.497211,0.846741,0.17446,-0.5425000000000001,-0.1925,0.28875
1741711707.8768632,-0.499224,0.845887,0.174826,-0.245,-0.1225,0.2275
1741711707.879455,-0.4988579999999999,0.843874,0.171349,-0.23625,-0.07875,0.13125
1741711707.8858523,-0.505507,0.852658,0.1758019999999999,-0.1575,0.07,0.14875
1741711707.888698,-0.511973,0.860771,0.169763,-0.105,-0.07,0.245
1741711707.8914692,-0.51972,0.86437,0.170373,-0.09625,-0.07,0.28875
1741711707.8942738,-0.529419,0.8644919999999999,0.174399,-0.1225,-0.0875,0.2625
1741711707.8969522,-0.518927,0.868762,0.169275,-0.0175,-0.09625,0.3675
1741711707.8993795,-0.516182,0.866444,0.17263,0.07,-0.0525,0.49
1741711707.9017282,-0.520818,0.869616,0.17019,-0.035,-0.0875,0.4725
1741711707.9047563,-0.5188659999999999,0.870409,0.165127,-0.28,-0.21875,0.665
1741711707.9098954,-0.520574,0.869677,0.16958,-0.32375,-0.18375,0.8925000000000001
1741711707.9127555,-0.521855,0.866017,0.170068,-0.28,-0.21875,1.05875
1741711707.91551,-0.515877,0.86315,0.169336,-0.42,-0.2975,1.05
1741711707.9182966,-0.511851,0.860893,0.167933,-0.41125,-0.32375,1.04125
1741711707.9209409,-0.505324,0.858453,0.177388,-0.2975,-0.28,1.12
1741711707.9235165,-0.505568,0.854488,0.170495,-0.3675,-0.2275,1.05875
1741711707.9260938,-0.501664,0.850035,0.173118,-0.5075000000000001,-0.21875,1.00625
1741711707.9305649,-0.509655,0.84729,0.1699459999999999,-0.5425000000000001,-0.2275,0.8662500000000001
1741711707.934064,-0.4970279999999999,0.844972,0.170068,-0.3675,-0.27125,0.69125
1741711707.9369023,-0.497577,0.845338,0.172752,-0.42875,-0.0875,0.5687500000000001
1741711707.9396644,-0.497699,0.845338,0.168604,-0.48125,-0.13125,0.25375
1741711707.9423845,-0.496479,0.844057,0.173789,-0.245,-0.105,0.2975
1741711707.945091,-0.50081,0.84668,0.173545,-0.27125,0.0,0.21875
1741711707.947689,-0.502762,0.848876,0.1708609999999999,-0.04375,-0.07875,0.16625
1741711707.9503622,-0.505873,0.856013,0.17202,-0.14875,-0.07875,0.175
1741711707.9557898,-0.50569,0.85949,0.17446,-0.035,-0.0875,0.18375
1741711707.9593575,-0.517768,0.8651019999999999,0.173362,-0.07875,-0.07875,0.23625
1741711707.9621851,-0.514535,0.86437,0.174155,-0.02625,0.0,0.5162500000000001
1741711707.9649088,-0.517829,0.867542,0.17385,-0.07875,0.0,0.6212500000000001
1741711707.9676692,-0.516182,0.868701,0.169214,-0.1225,-0.00875,0.665
1741711707.970244,-0.520208,0.866383,0.173362,0.0525,-0.1575,0.74375
1741711707.9729202,-0.5188659999999999,0.866627,0.171044,-0.14,-0.14,0.8575
1741711707.9785056,-0.5173409999999999,0.866078,0.170495,-0.28875,-0.20125,1.00625
1741711707.9820137,-0.511729,0.863516,0.169885,-0.37625,-0.42,0.97125
1741711707.984926,-0.507642,0.8601,0.172203,-0.245,-0.245,0.98
1741711707.9876976,-0.502457,0.85461,0.171349,-0.35,-0.25375,1.0237500000000002
1741711707.9904115,-0.504287,0.8553419999999999,0.169702,-0.35875,-0.2625,1.0237500000000002
1741711707.9934063,-0.501176,0.852719,0.168238,-0.42875,-0.245,0.7962500000000001
1741711707.995868,-0.500993,0.8480219999999999,0.164883,-0.5162500000000001,-0.21,0.8662500000000001
1741711707.9983137,-0.499956,0.8479,0.17141,-0.525,-0.2275,0.6125
1741711708.0021014,-0.497699,0.8474119999999999,0.172813,-0.5075000000000001,-0.23625,0.5162500000000001
1741711708.0052586,-0.4955029999999999,0.848571,0.175497,-0.28875,-0.0875,0.34125
1741711708.007901,-0.499956,0.844545,0.172325,-0.42,-0.2975,0.25375
1741711708.0105126,-0.498919,0.844118,0.169824,-0.315,-0.07875,0.23625
1741711708.013054,-0.515023,0.852719,0.16958,-0.28,-0.1575,-0.0175
1741711708.01551,-0.508313,0.857233,0.172264,-0.28,-0.175,0.14875
1741711708.0179458,-0.510204,0.8565619999999999,0.1702509999999999,-0.1225,-0.09625,0.07
1741711708.0206792,-0.511851,0.860344,0.1717759999999999,-0.16625,-0.09625,0.1575
1741711708.0245605,-0.5149009999999999,0.86315,0.171532,-0.2625,-0.105,0.16625
1741711708.0274136,-0.516914,0.865041,0.17263,-0.13125,-0.105,0.28875
1741711708.0299134,-0.519537,0.866993,0.174033,-0.11375,-0.13125,0.42
1741711708.032318,-0.51606,0.870043,0.175924,-0.1225,-0.13125,0.7087500000000001
1741711708.036007,-0.522038,0.865834,0.168177,-0.2275,-0.14,0.805
1741711708.038634,-0.5185,0.869311,0.171959,-0.09625,-0.25375,0.83125
1741711708.0418303,-0.516304,0.866017,0.172813,-0.14,-0.2625,1.0325000000000002
1741711708.044454,-0.515877,0.864248,0.170373,-0.0875,-0.14875,1.0237500000000002
1741711708.0470583,-0.513742,0.864004,0.169031,-0.1225,-0.385,1.1725
1741711708.049646,-0.506544,0.859429,0.17019,-0.14,-0.27125,1.2425000000000002
1741711708.052105,-0.512278,0.858819,0.165127,-0.1575,-0.1225,0.945
1741711708.0545466,-0.50996,0.852658,0.169763,-0.34125,-0.2625,0.9975
1741711708.057514,-0.498126,0.853634,0.171715,-0.46375,-0.27125,0.945
1741711708.0602393,-0.499651,0.848205,0.169458,-0.30625,-0.14875,0.8750000000000001
1741711708.0628738,-0.498309,0.846436,0.168421,-0.315,-0.3325,0.665
1741711708.0651338,-0.494222,0.8495469999999999,0.1674449999999999,-0.42,-0.18375,0.6125
1741711708.0674276,-0.493673,0.844911,0.17019,-0.55125,-0.16625,0.58625
1741711708.0696702,-0.495076,0.848693,0.1723859999999999,-0.41125,-0.14,0.48125
1741711708.0717845,-0.504104,0.8479,0.171715,-0.2275,-0.09625,0.3325
1741711708.0739346,-0.500017,0.85095,0.174399,-0.27125,-0.21875,0.2625
1741711708.0764344,-0.500505,0.849791,0.168665,-0.28,-0.21,0.0875
1741711708.0791907,-0.505324,0.856074,0.1736059999999999,-0.2275,-0.21,0.09625
1741711708.0818777,-0.508862,0.8568669999999999,0.171288,-0.28,-0.1575,0.035
1741711708.0842023,-0.507581,0.873032,0.171959,-0.21,-0.2275,0.1225
1741711708.086497,-0.514169,0.859246,0.171837,-0.28875,-0.11375,0.11375
1741711708.088694,-0.5155109999999999,0.861381,0.16897,-0.175,-0.0525,0.14875
1741711708.090843,-0.517585,0.8617469999999999,0.16836,-0.21,-0.07,0.16625
1741711708.0929856,-0.507581,0.865956,0.1769,-0.2275,-0.13125,0.1925
1741711708.0957716,-0.5197809999999999,0.865468,0.1702509999999999,-0.245,-0.20125,0.48125
1741711708.0983307,-0.521123,0.866444,0.157319,-0.245,-0.1225,0.4375
1741711708.10094,-0.523563,0.866444,0.174155,-0.175,-0.2275,0.49875
1741711708.1033502,-0.519232,0.865834,0.173423,-0.34125,-0.25375,0.63875
1741711708.1057673,-0.530761,0.867664,0.172752,-0.07875,-0.315,0.83125
1741711708.1081638,-0.515145,0.862235,0.169702,-0.09625,-0.175,0.98
1741711708.1104114,-0.513498,0.861869,0.169031,-0.245,-0.30625,1.0762500000000002
1741711708.1125517,-0.512644,0.863638,0.174399,-0.245,-0.27125,0.98875
1741711708.1147292,-0.512583,0.856135,0.172142,-0.30625,-0.23625,1.1025
1741711708.1172533,-0.50569,0.858941,0.175192,-0.21,-0.18375,1.16375
1741711708.1210682,-0.502884,0.853024,0.172142,-0.14,-0.11375,1.12
1741711708.12391,-0.499285,0.84851,0.170983,-0.28875,-0.21,0.9625
1741711708.1266346,-0.503433,0.8498519999999999,0.17202,-0.175,-0.16625,0.8750000000000001
1741711708.1293075,-0.50569,0.8483269999999999,0.167384,-0.1225,-0.09625,0.98875
1741711708.13195,-0.496174,0.84973,0.170373,-0.20125,-0.0525,0.6212500000000001
1741711708.1345634,-0.499651,0.8486319999999999,0.169519,-0.1925,-0.21875,0.6562500000000001
1741711708.137334,-0.501542,0.851011,0.1668349999999999,-0.21,-0.20125,0.58625
1741711708.1396773,-0.494405,0.847656,0.17141,-0.105,-0.02625,0.37625
1741711708.1424117,-0.497577,0.851438,0.170434,-0.44625,-0.14,0.21
1741711708.1446946,-0.504287,0.852353,0.167384,-0.28,-0.32375,0.20125
1741711708.1472986,-0.503616,0.854854,0.167689,-0.21,-0.1925,0.18375
1741711708.1496525,-0.506544,0.853634,0.167079,-0.28875,-0.16625,0.21875
1741711708.1529195,-0.508557,0.859124,0.169519,-0.2275,-0.07875,0.2275
1741711708.1560757,-0.512522,0.86071,0.170129,-0.2275,-0.02625,0.1925
1741711708.158378,-0.5149009999999999,0.867725,0.177205,-0.245,-0.2275,0.28875
1741711708.1610012,-0.517097,0.864309,0.167811,-0.2625,-0.2625,0.48125
1741711708.163234,-0.513925,0.865529,0.171349,-0.41125,-0.175,0.6125
1741711708.1662045,-0.51911,0.86986,0.167872,-0.37625,-0.21875,0.63875
1741711708.1689515,-0.517768,0.867359,0.173423,-0.3325,-0.175,0.69125
1741711708.1722283,-0.515694,0.864309,0.171532,-0.20125,-0.315,0.7175
1741711708.1746798,-0.506849,0.861808,0.173667,-0.385,-0.2625,0.8400000000000001
1741711708.1774004,-0.511485,0.860954,0.167872,-0.39375,-0.30625,0.8925000000000001
1741711708.179922,-0.510265,0.85949,0.174399,-0.28,-0.2275,0.93625
1741711708.1826396,-0.509899,0.856135,0.171837,-0.245,-0.245,0.83125
1741711708.184847,-0.50813,0.856318,0.170129,-0.3675,-0.14875,0.8750000000000001
1741711708.187762,-0.507764,0.854,0.16897,-0.11375,-0.1225,0.9625
1741711708.1909225,-0.502274,0.8522919999999999,0.157075,-0.3325,-0.105,0.88375
1741711708.193492,-0.4991629999999999,0.849425,0.169397,-0.18375,-0.09625,0.91
1741711708.1962469,-0.4985529999999999,0.8489369999999999,0.170312,-0.28,-0.16625,0.665
1741711708.1986222,-0.500749,0.851865,0.1708,-0.20125,-0.0875,0.58625
1741711708.201211,-0.502884,0.8495469999999999,0.1733009999999999,-0.21875,-0.0875,0.7175
1741711708.2034535,-0.500688,0.853024,0.174704,-0.23625,-0.11375,0.4375
1741711708.206154,-0.504104,0.852475,0.168909,-0.21,-0.0525,0.4025
1741711708.209104,-0.498431,0.850401,0.167079,-0.175,-0.09625,0.27125
1741711708.212533,-0.502457,0.854,0.168055,-0.245,-0.0875,0.2275
1741711708.2149122,-0.507032,0.8556469999999999,0.167994,-0.245,-0.28,0.20125
1741711708.217825,-0.513742,0.8596119999999999,0.172325,-0.21875,-0.1575,0.2275
1741711708.2201147,-0.506544,0.863333,0.174094,-0.2625,-0.13125,0.315
1741711708.2227037,-0.5136809999999999,0.8638819999999999,0.17385,-0.175,-0.27125,0.2975
1741711708.2250035,-0.511424,0.8644919999999999,0.174338,-0.20125,-0.07,0.3675
1741711708.2284234,-0.514047,0.862845,0.171959,-0.1925,-0.2275,0.4725
1741711708.2310803,-0.51057,0.864248,0.1708609999999999,-0.28,-0.2625,0.60375
1741711708.233339,-0.522587,0.860344,0.166591,-0.34125,-0.3325,0.58625
1741711708.23567,-0.518683,0.862906,0.17141,-0.385,-0.315,0.6475000000000001
1741711708.237959,-0.516487,0.863394,0.1702509999999999,-0.245,-0.1575,0.7262500000000001
1741711708.2401843,-0.5139859999999999,0.8629669999999999,0.1662249999999999,-0.3325,-0.2625,0.805
1741711708.2423732,-0.510997,0.861808,0.170922,-0.4025,-0.28875,0.7962500000000001
1741711708.2445142,-0.507581,0.860283,0.177754,-0.30625,-0.21,0.945
1741711708.2476406,-0.507947,0.858514,0.173484,-0.18375,-0.0525,0.98875
1741711708.250787,-0.505995,0.8568669999999999,0.16897,-0.245,-0.14,0.8487500000000001
1741711708.2531445,-0.505507,0.852719,0.166103,-0.2625,-0.2625,0.91
1741711708.25587,-0.502457,0.851865,0.172569,-0.18375,-0.18375,0.83125
1741711708.2582543,-0.508679,0.851865,0.173484,-0.16625,-0.14,0.7612500000000001
1741711708.2608285,-0.503799,0.85156,0.1726909999999999,-0.2275,0.0175,0.7612500000000001
1741711708.2632875,-0.497394,0.853146,0.174704,-0.21,0.07875,0.58625
1741711708.2662268,-0.501481,0.8492419999999999,0.1705559999999999,-0.21875,-0.0875,0.5075000000000001
1741711708.2695584,-0.502457,0.848998,0.172142,0.0175,-0.07875,0.6562500000000001
1741711708.271979,-0.501054,0.855403,0.172508,-0.04375,-0.21,0.525
1741711708.274675,-0.50203,0.8556469999999999,0.174338,-0.20125,-0.09625,0.4725
1741711708.2770593,-0.505019,0.854793,0.167628,-0.0175,-0.04375,0.4025
1741711708.2797575,-0.504531,0.856989,0.168543,-0.1925,-0.0875,0.3675
1741711708.2819755,-0.505507,0.858331,0.172813,-0.175,-0.1225,0.315
1741711708.2846785,-0.512888,0.860466,0.174704,-0.315,-0.18375,0.3325
1741711708.2877202,-0.510509,0.860893,0.168177,-0.27125,-0.175,0.4375
1741711708.290985,-0.512827,0.862601,0.171349,-0.30625,-0.28,0.4025
1741711708.293334,-0.512217,0.866017,0.1720809999999999,-0.34125,-0.28875,0.34125
1741711708.2960994,-0.511912,0.864004,0.174582,-0.34125,-0.1575,0.55125
1741711708.2987392,-0.513315,0.862723,0.17324,-0.2275,-0.23625,0.6737500000000001
1741711708.30093,-0.511607,0.860649,0.1702509999999999,-0.21875,-0.1575,0.5162500000000001
1741711708.3034997,-0.5133759999999999,0.864126,0.173545,-0.49875,-0.2975,0.74375
1741711708.306237,-0.513193,0.859368,0.171837,-0.27125,-0.28,0.77
1741711708.3094363,-0.5124609999999999,0.8596119999999999,0.171959,-0.2975,-0.1925,0.805
1741711708.3121438,-0.509899,0.859185,0.1726909999999999,-0.315,-0.14,0.91
1741711708.3145306,-0.504775,0.8568669999999999,0.172874,-0.28,-0.1925,0.7262500000000001
1741711708.317126,-0.506971,0.856745,0.1717759999999999,-0.21,-0.28,0.805
1741711708.319625,-0.505507,0.853268,0.173179,-0.27125,-0.1925,0.7525000000000001
1741711708.322067,-0.506117,0.850828,0.169824,-0.34125,-0.1925,0.7962500000000001
1741711708.3246765,-0.504531,0.851499,0.171227,-0.30625,-0.175,0.69125
1741711708.3278227,-0.502152,0.851804,0.168482,-0.28,-0.1925,0.7175
1741711708.3310852,-0.502457,0.85156,0.186904,-0.28,-0.02625,0.5337500000000001
1741711708.3337028,-0.504226,0.854488,0.175985,-0.16625,-0.21,0.5162500000000001
1741711708.3363142,-0.500871,0.8525969999999999,0.172935,-0.2625,-0.14875,0.58625
1741711708.338606,-0.502457,0.855769,0.169641,-0.245,0.04375,0.44625
1741711708.3411424,-0.508313,0.855525,0.16836,-0.28875,-0.1925,0.4375
1741711708.343689,-0.50691,0.857843,0.175863,-0.1225,-0.04375,0.49
1741711708.347736,-0.512339,0.859063,0.169763,-0.09625,-0.1575,0.455
1741711708.3512268,-0.511119,0.856989,0.1702509999999999,-0.27125,-0.14,0.58625
1741711708.3535423,-0.51301,0.86132,0.168421,-0.25375,-0.14875,0.49875
1741711708.3563163,-0.510204,0.862906,0.172203,-0.245,-0.245,0.63875
1741711708.3589234,-0.508679,0.862296,0.171349,-0.1925,-0.32375,0.5950000000000001
1741711708.361388,-0.511973,0.862296,0.169275,-0.30625,-0.1925,0.55125
1741711708.3642,-0.513925,0.863211,0.171593,-0.245,-0.2625,0.49875
1741711708.3667202,-0.512888,0.861259,0.170922,-0.385,-0.28,0.63875
1741711708.3693528,-0.511607,0.861259,0.169092,-0.385,-0.32375,0.6562500000000001
1741711708.3723872,-0.51301,0.860771,0.171715,-0.4025,-0.23625,0.6562500000000001
1741711708.3759708,-0.508069,0.858026,0.176839,-0.385,-0.30625,0.7612500000000001
1741711708.3787787,-0.511851,0.85339,0.1720809999999999,-0.3325,-0.23625,0.5775
1741711708.3823192,-0.50386,0.856501,0.173728,-0.385,-0.06125,0.7962500000000001
1741711708.3852892,-0.503555,0.854915,0.172264,-0.30625,-0.1925,0.7875000000000001
1741711708.3881593,-0.505019,0.852719,0.171349,-0.25375,-0.18375,0.63875
1741711708.3910277,-0.504958,0.8529019999999999,0.174765,-0.14,-0.1575,0.6737500000000001
1741711708.39381,-0.508618,0.85339,0.171288,-0.11375,-0.13125,0.6825000000000001
1741711708.3963811,-0.503006,0.8544269999999999,0.171898,-0.175,-0.0875,0.7262500000000001
1741711708.400189,-0.507032,0.850706,0.168726,0.0,-0.0525,0.58625
1741711708.4034152,-0.507276,0.854061,0.17019,-0.105,-0.0175,0.58625
1741711708.406401,-0.508069,0.853939,0.173118,-0.02625,-0.1225,0.7000000000000001
1741711708.4094234,-0.507886,0.8565619999999999,0.1708609999999999,0.02625,-0.02625,0.4725
1741711708.4123845,-0.512156,0.860771,0.16897,-0.1225,-0.09625,0.60375
1741711708.415111,-0.511729,0.8601,0.171105,-0.175,0.0175,0.6212500000000001
1741711708.4186504,-0.51057,0.861686,0.168116,-0.2625,0.0,0.49875
1741711708.4229603,-0.51057,0.8602219999999999,0.17507,-0.18375,-0.07,0.665
1741711708.4264412,-0.5158159999999999,0.862845,0.174948,-0.18375,-0.23625,0.5687500000000001
1741711708.4300609,-0.51057,0.8608319999999999,0.17141,-0.245,-0.21,0.5075000000000001
1741711708.4325962,-0.504897,0.862296,0.168482,-0.315,-0.28875,0.7612500000000001
1741711708.4351895,-0.51179,0.863089,0.173545,-0.4725,-0.14,0.6212500000000001
1741711708.4386442,-0.5063,0.8568669999999999,0.17507,-0.39375,-0.1575,0.58625
1741711708.442506,-0.512278,0.855586,0.170068,-0.44625,-0.3325,0.69125
1741711708.445086,-0.507398,0.855708,0.172569,-0.48125,-0.2975,0.7350000000000001
1741711708.447533,-0.500078,0.8577819999999999,0.177144,-0.37625,-0.07,0.69125
1741711708.4502237,-0.506849,0.8556469999999999,0.172813,-0.32375,-0.20125,0.7612500000000001
1741711708.45323,-0.505934,0.85278,0.174399,-0.245,-0.175,0.7087500000000001
1741711708.455903,-0.50996,0.852109,0.168665,-0.34125,-0.16625,0.58625
1741711708.4587772,-0.501725,0.851926,0.171898,-0.23625,-0.105,0.5075000000000001
1741711708.4612226,-0.507398,0.852353,0.171654,-0.30625,-0.16625,0.5687500000000001
1741711708.4638207,-0.505812,0.85095,0.171227,-0.18375,-0.035,0.525
1741711708.4663985,-0.499956,0.85644,0.171654,-0.105,-0.1925,0.6562500000000001
1741711708.4687462,-0.507764,0.853024,0.167079,-0.175,-0.16625,0.5425000000000001
1741711708.4712486,-0.507459,0.857843,0.169641,-0.16625,-0.175,0.48125
1741711708.4751956,-0.513925,0.8541219999999999,0.162626,-0.14,-0.04375,0.46375
1741711708.480577,-0.509533,0.859246,0.175985,-0.0175,-0.07875,0.6562500000000001
1741711708.4832397,-0.510326,0.860466,0.168116,-0.14,-0.20125,0.4725
1741711708.4858737,-0.51179,0.862418,0.168482,-0.14875,-0.20125,0.5425000000000001
1741711708.4884284,-0.509289,0.8626619999999999,0.168177,-0.27125,-0.175,0.63875
1741711708.490832,-0.509289,0.86498,0.170068,-0.20125,-0.06125,0.5425000000000001
1741711708.49421,-0.513559,0.861869,0.1705559999999999,-0.2975,-0.18375,0.69125
1741711708.4978375,-0.511058,0.861869,0.169153,-0.37625,-0.18375,0.7262500000000001
1741711708.5009086,-0.511058,0.858575,0.1714709999999999,-0.4375,-0.1925,0.5425000000000001
1741711708.5039086,-0.509411,0.856745,0.172569,-0.34125,-0.2275,0.58625
1741711708.5068803,-0.507642,0.855403,0.170007,-0.42875,-0.30625,0.525
1741711708.509681,-0.509777,0.855464,0.171715,-0.5775,-0.3325,0.77875
1741711708.5126302,-0.505812,0.856501,0.172325,-0.4725,-0.34125,0.56
1741711708.516489,-0.505873,0.852353,0.171044,-0.35,-0.3675,0.5425000000000001
1741711708.519703,-0.505446,0.853146,0.170922,-0.34125,-0.13125,0.5687500000000001
1741711708.522851,-0.503494,0.853451,0.170312,-0.23625,-0.09625,0.4025
1741711708.5260963,-0.50569,0.852109,0.170373,-0.32375,-0.1575,0.5950000000000001
1741711708.5288117,-0.507215,0.8522919999999999,0.174094,-0.20125,-0.14875,0.58625
1741711708.531924,-0.509045,0.8550369999999999,0.171532,-0.1225,0.00875,0.6125
1741711708.5355582,-0.509899,0.85644,0.172142,-0.035,-0.09625,0.525
1741711708.5389605,-0.500932,0.858453,0.175375,-0.175,-0.0525,0.49
1741711708.5421803,-0.506849,0.859063,0.171898,-0.0175,-0.105,0.48125
1741711708.544734,-0.510082,0.8601,0.170983,-0.035,-0.18375,0.5775
1741711708.5475073,-0.511485,0.860344,0.1828779999999999,-0.13125,-0.13125,0.5775
1741711708.550087,-0.513559,0.860405,0.169275,-0.14,-0.09625,0.6562500000000001
1741711708.5527873,-0.5124609999999999,0.863028,0.1659199999999999,-0.21,-0.25375,0.69125
1741711708.555957,-0.509716,0.860466,0.169702,-0.245,-0.1225,0.5775
1741711708.558698,-0.510692,0.859063,0.1708,-0.16625,-0.07875,0.5950000000000001
1741711708.5613017,-0.508923,0.85705,0.17141,-0.21,-0.1225,0.5337500000000001
1741711708.5638847,-0.511668,0.8608319999999999,0.172813,-0.385,-0.245,0.7875000000000001
1741711708.5663502,-0.512339,0.856623,0.170007,-0.315,-0.2275,0.7350000000000001
1741711708.5687647,-0.507642,0.856684,0.169702,-0.315,-0.245,0.69125
1741711708.5715482,-0.504958,0.8565619999999999,0.174155,-0.37625,-0.175,0.6475000000000001
1741711708.574727,-0.507703,0.857355,0.169824,-0.2625,-0.25375,0.6737500000000001
1741711708.5776289,-0.509411,0.85522,0.1702509999999999,-0.32375,-0.315,0.5687500000000001
1741711708.5801332,-0.504958,0.857904,0.173911,-0.2975,-0.245,0.6562500000000001
1741711708.5827725,-0.505202,0.852475,0.168177,-0.42875,-0.105,0.55125
1741711708.5850284,-0.503433,0.854,0.171044,-0.35875,-0.30625,0.5425000000000001
1741711708.5874324,-0.502091,0.852353,0.177205,-0.41125,-0.23625,0.49875
1741711708.589872,-0.504531,0.8550369999999999,0.177449,-0.28,-0.23625,0.455
1741711708.592778,-0.508557,0.8568669999999999,0.167323,-0.35,-0.035,0.5075000000000001
1741711708.5959866,-0.508008,0.855525,0.171044,-0.3675,-0.23625,0.44625
1741711708.5984712,-0.512217,0.855769,0.185074,-0.1925,-0.28,0.44625
1741711708.6010733,-0.512888,0.8577819999999999,0.169458,-0.13125,-0.1225,0.455
1741711708.6036792,-0.511668,0.8586969999999999,0.1708609999999999,-0.105,-0.06125,0.60375
1741711708.606775,-0.50996,0.858026,0.171837,-0.09625,-0.13125,0.55125
1741711708.6097932,-0.509228,0.860893,0.170739,-0.1925,-0.1575,0.55125
1741711708.6126306,-0.510204,0.858026,0.172569,-0.02625,-0.07,0.5425000000000001
1741711708.616434,-0.512705,0.862418,0.169519,-0.25375,-0.21875,0.56
1741711708.6197886,-0.512217,0.864736,0.172447,-0.21,0.06125,0.6125
1741711708.6227932,-0.513437,0.860405,0.171532,-0.14,-0.25375,0.6125
1741711708.6252682,-0.510326,0.85949,0.1726909999999999,-0.16625,-0.1575,0.665
1741711708.6280005,-0.507154,0.859246,0.1674449999999999,-0.27125,-0.20125,0.7175
