Timestamp,Accel X,Accel Y,Accel Z,Gyro X,Gyro Y,Gyro Z
1741711146.621572,-0.943365,0.367525,0.1606739999999999,1.4525,-0.8925000000000001,0.44625
1741711146.6241777,-0.947879,0.367342,0.154696,2.12625,-1.6625,0.35875
1741711146.6272156,-0.948855,0.369355,0.153171,1.5837500000000002,-1.3825,0.77
1741711146.629583,-0.943914,0.369599,0.149877,-0.42875,-0.93625,1.3037500000000002
1741711146.6320298,-0.938302,0.369172,0.1486569999999999,-2.5025000000000004,-0.4725,1.5925000000000002
1741711146.634492,-0.935313,0.367037,0.1529879999999999,-3.535,-0.1225,1.4175000000000002
1741711146.6368563,-0.923967,0.362279,0.1640899999999999,-3.2025,0.0875,0.7175
1741711146.6391416,-0.926712,0.362584,0.159698,-1.995,0.16625,0.07
1741711146.6415868,-0.930372,0.365512,0.1640899999999999,-0.6300000000000001,-0.11375,-0.42
1741711146.644375,-0.944829,0.362523,0.163419,0.98875,-0.7175,-0.5337500000000001
1741711146.6467905,-0.950075,0.3592289999999999,0.156221,1.6887500000000002,-0.95375,0.0
1741711146.649397,-0.945683,0.365024,0.164273,1.785,-0.8925000000000001,0.6300000000000001
1741711146.652141,-0.951722,0.362706,0.1551229999999999,0.88375,-0.6737500000000001,1.26875
1741711146.6562145,-0.944829,0.368074,0.157258,-0.6737500000000001,0.105,1.9775000000000005
1741711146.6588004,-0.939644,0.368074,0.150975,-1.6800000000000002,0.6737500000000001,1.8025
1741711146.663035,-0.923235,0.365512,0.156282,-1.65375,0.7175,0.90125
1741711146.665279,-0.917501,0.363499,0.155611,-1.23375,0.41125,0.18375
1741711146.6678724,-0.926834,0.3639259999999999,0.1579289999999999,-0.21875,0.09625,-0.56
1741711146.6708338,-0.933727,0.361669,0.158356,0.9275,-0.5425000000000001,-0.6300000000000001
1741711146.6730602,-0.93757,0.360327,0.156587,1.6887500000000002,-0.8487500000000001,-0.5162500000000001
1741711146.6752913,-0.94916,0.365024,0.150975,1.88125,-0.8750000000000001,0.0875
1741711146.677605,-0.95404,0.3666709999999999,0.154269,1.6450000000000002,-0.8750000000000001,0.55125
1741711146.6809397,-0.950624,0.363438,0.152317,0.56,-0.805,1.0850000000000002
1741711146.684055,-0.944219,0.366732,0.1542079999999999,-1.56625,-0.58625,1.7062500000000005
1741711146.6876533,-0.931836,0.362706,0.153842,-2.75625,-0.3675,1.3562500000000002
1741711146.6900935,-0.924882,0.366915,0.1603689999999999,-2.5812500000000003,-0.175,0.7262500000000001
1741711146.6925735,-0.93147,0.361242,0.171654,-2.0475000000000003,-0.02625,0.4025
1741711146.6949322,-0.934032,0.361547,0.1640899999999999,-0.8225000000000001,0.16625,-0.20125
1741711146.697219,-0.93452,0.360815,0.163114,0.7875000000000001,0.2975,-0.3325
1741711146.699534,-0.939827,0.359656,0.160003,1.7587500000000005,0.04375,-0.385
1741711146.7026148,-0.938058,0.359595,0.15494,2.31,-0.035,0.27125
1741711146.705718,-0.945134,0.3589239999999999,0.148291,1.155,-0.2275,0.8400000000000001
1741711146.7081025,-0.94489,0.36295,0.148474,0.0175,-0.455,1.505
1741711146.7104137,-0.94001,0.3657559999999999,0.151646,-0.9275,-0.4025,1.7937500000000002
1741711146.713151,-0.937814,0.3669759999999999,0.151036,-1.89875,-0.48125,1.505
1741711146.716382,-0.93635,0.3657559999999999,0.157868,-2.10875,-0.49875,1.1462500000000002
1741711146.7191122,-0.931958,0.367403,0.162687,-1.4875,-0.5687500000000001,0.13125
1741711146.721638,-0.929945,0.366305,0.1640899999999999,1.7325000000000002,-0.455,-0.28875
1741711146.7238986,-0.934581,0.361913,0.160308,0.25375,-0.42,-0.27125
1741711146.7261035,-0.938668,0.363438,0.155977,0.7262500000000001,-0.4725,-0.2625
1741711146.7282894,-0.938058,0.3636209999999999,0.153354,0.7087500000000001,-0.385,0.07
1741711146.7312312,-0.944219,0.366,0.156587,0.5775,-0.4375,0.7612500000000001
1741711146.7336538,-0.941108,0.363865,0.164212,-2.0825,-0.42875,1.09375
1741711146.7362475,-0.941718,0.364292,0.154147,-0.63875,-0.2975,1.1375000000000002
1741711146.7385294,-0.942572,0.363316,0.151524,-1.05,-0.245,1.12875
1741711146.7408824,-0.937814,0.364292,0.156099,-1.2775,0.0,0.97125
1741711146.7432988,-0.932446,0.3672809999999999,0.157319,-1.4525,0.1925,0.8575
1741711146.745772,-0.934032,0.365024,0.156099,-1.155,0.1225,0.5337500000000001
1741711146.7483914,-0.927444,0.363255,0.158966,-0.2975,0.0,0.28875
1741711146.7517118,-0.930616,0.362828,0.160796,0.4375,-0.2975,0.07875
1741711146.7544093,-0.939156,0.363865,0.15799,1.3825,-0.21,0.02625
1741711146.7568326,-0.935923,0.368074,0.158356,1.1725,-0.5425000000000001,0.23625
1741711146.7592502,-0.942694,0.367525,0.152927,0.58625,-0.6562500000000001,0.7175
1741711146.7617214,-0.942938,0.364658,0.152866,-0.11375,-0.385,1.04125
1741711146.764068,-0.942389,0.365634,0.151036,-0.98,-0.455,1.00625
1741711146.766353,-0.938363,0.366,0.158417,-1.225,-0.4375,1.04125
1741711146.7687323,-0.934825,0.364048,0.157868,-1.33875,-0.385,0.8487500000000001
1741711146.771798,-0.935313,0.367159,0.1579289999999999,-0.98875,-0.175,0.5162500000000001
1741711146.7745132,-0.933056,0.3660609999999999,0.145973,-0.25375,-0.21875,0.23625
1741711146.7770803,-0.929762,0.36722,0.159271,0.1225,-0.3325,0.14875
1741711146.7797384,-0.936045,0.359656,0.154086,0.34125,-0.2625,0.105
1741711146.782442,-0.939034,0.363682,0.15311,0.49875,-0.4025,0.11375
1741711146.7849224,-0.937387,0.363682,0.15677,0.30625,-0.37625,0.4725
1741711146.787455,-0.940071,0.362584,0.1529879999999999,-0.04375,-0.21,0.7612500000000001
1741711146.7902317,-0.94367,0.36539,0.150426,-0.5775,-0.30625,1.04125
1741711146.7925808,-0.943304,0.365573,0.155428,-0.8750000000000001,-0.245,1.1375000000000002
1741711146.7949584,-0.938424,0.366,0.161894,-1.2512500000000002,-0.25375,1.09375
1741711146.7972944,-0.935984,0.367159,0.1600639999999999,-0.83125,-0.41125,0.91875
1741711146.7996511,-0.935374,0.3685009999999999,0.160796,-0.6825000000000001,-0.42,0.5687500000000001
1741711146.8025444,-0.935923,0.36295,0.161894,0.0525,-0.28,0.35
1741711146.8051045,-0.93696,0.364048,0.15799,0.37625,-0.21,0.385
1741711146.8075724,-0.933849,0.362096,0.157136,0.21875,-0.3325,0.41125
1741711146.8101618,-0.934459,0.361852,0.142252,0.0175,-0.385,0.35875
1741711146.8128195,-0.936106,0.360937,0.160308,-0.16625,-0.2275,0.5337500000000001
1741711146.815455,-0.940986,0.364414,0.1535979999999999,-0.32375,-0.28,0.4375
1741711146.8178763,-0.936777,0.364902,0.156953,-0.32375,-0.245,0.5775
1741711146.821455,-0.936411,0.364475,0.154879,-0.44625,-0.32375,0.63875
1741711146.8238847,-0.936411,0.36478,0.160003,-0.5162500000000001,-0.4025,0.6562500000000001
1741711146.8261278,-0.938973,0.364475,0.156953,-0.5950000000000001,-0.42,0.7612500000000001
1741711146.8283484,-0.927139,0.363255,0.161894,-0.25375,-0.4375,0.6125
1741711146.8305953,-0.942206,0.366122,0.157807,-0.23625,-0.4375,0.6212500000000001
1741711146.832834,-0.944036,0.363865,0.161467,-0.23625,-0.30625,0.6212500000000001
1741711146.8354769,-0.939583,0.365085,0.159942,0.0525,-0.175,0.5950000000000001
1741711146.8381107,-0.931226,0.361852,0.156465,-0.20125,0.14,0.69125
1741711146.8406007,-0.934886,0.363011,0.1535979999999999,-0.34125,0.20125,0.7612500000000001
1741711146.84328,-0.92903,0.363072,0.152744,-0.4375,0.04375,0.7175
1741711146.8461723,-0.933727,0.368074,0.156282,-0.4375,-0.07875,0.7000000000000001
1741711146.8484132,-0.934154,0.3678909999999999,0.15799,-0.2625,-0.23625,0.6212500000000001
1741711146.8508167,-0.934642,0.364048,0.160613,-0.02625,-0.4725,0.5075000000000001
1741711146.8541462,-0.93635,0.364414,0.160552,0.25375,-0.6737500000000001,0.5425000000000001
1741711146.856671,-0.939217,0.3648409999999999,0.152256,0.1225,-0.58625,0.5162500000000001
1741711146.859017,-0.940925,0.3651459999999999,0.154025,0.0175,-0.63875,0.525
1741711146.8613224,-0.941352,0.3639259999999999,0.1551229999999999,-0.49875,-0.7000000000000001,0.55125
1741711146.863696,-0.940681,0.365268,0.152744,-0.8400000000000001,-0.5687500000000001,0.5687500000000001
1741711146.8661473,-0.93574,0.36234,0.15738,-0.97125,-0.42,0.6475000000000001
1741711146.868729,-0.937997,0.364048,0.157807,-0.91,-0.41125,0.6737500000000001
1741711146.8713794,-0.937692,0.3642309999999999,0.160003,-0.8400000000000001,-0.385,0.49875
1741711146.8739223,-0.935557,0.363133,0.159271,-0.32375,-0.4025,0.4725
1741711146.8766172,-0.943304,0.362035,0.1588439999999999,-0.18375,-0.21,0.5425000000000001
1741711146.879693,-0.938973,0.363438,0.159271,0.06125,-0.30625,0.7262500000000001
1741711146.8820791,-0.940254,0.361303,0.1586,0.23625,-0.1225,0.58625
1741711146.8844304,-0.941047,0.366549,0.15555,0.245,-0.13125,0.8400000000000001
1741711146.887785,-0.936716,0.365207,0.145363,0.09625,-0.1225,0.7262500000000001
1741711146.8902462,-0.935191,0.364719,0.158112,-0.35875,2.2225,0.8750000000000001
1741711146.8926404,-0.93574,0.363438,0.15494,-0.39375,-2.1875,0.69125
1741711146.8951075,-0.934276,0.3642309999999999,0.156404,-0.5162500000000001,-0.0525,0.4725
1741711146.897571,-0.937204,0.362218,0.15189,-0.35875,-0.315,0.37625
1741711146.9000835,-0.936899,0.3648409999999999,0.155977,-0.105,-0.42,0.315
1741711146.902805,-0.942877,0.368074,0.1529879999999999,-0.105,-0.5075000000000001,0.35
1741711146.9053464,-0.937936,0.363499,0.1603689999999999,-0.09625,-0.6300000000000001,0.6212500000000001
1741711146.9088326,-0.941108,0.365268,0.154696,0.18375,-0.63875,0.69125
1741711146.9112396,-0.937936,0.368074,0.154879,-0.11375,-0.5950000000000001,0.7962500000000001
1741711146.9136124,-0.938241,0.3639259999999999,0.155672,-0.42875,-0.5425000000000001,0.7612500000000001
1741711146.9158938,-0.94367,0.367952,0.153476,-0.6825000000000001,-0.525,0.8750000000000001
1741711146.9182813,-0.936411,0.366488,0.157502,-0.90125,-0.3325,0.77
1741711146.923282,-0.935435,0.3642309999999999,0.159576,-0.7087500000000001,-0.02625,0.5775
1741711146.9255335,-0.936045,0.363072,0.1594539999999999,-0.35875,0.06125,0.3325
1741711146.9277468,-0.930921,0.36478,0.1582339999999999,-0.2275,-0.07875,0.3325
1741711146.9299617,-0.933666,0.365512,0.162931,0.0175,-0.07,0.42875
1741711146.9321566,-0.932202,0.366183,0.158478,0.18375,-0.23625,0.55125
1741711146.9346,-0.938485,0.366,0.156343,0.0875,-0.3675,0.665
1741711146.9380145,-0.9394,0.36417,0.156587,0.2275,-0.4725,0.8487500000000001
1741711146.9412634,-0.941962,0.365085,0.153842,-0.2275,-0.49875,0.8225000000000001
1741711146.9440165,-0.939461,0.366549,0.160247,-0.42875,-0.4025,0.805
1741711146.9465218,-0.942572,0.365695,0.155855,-0.665,-0.3325,0.7175
1741711146.9488122,-0.933483,0.365207,0.15616,-0.74375,-0.21,0.6737500000000001
1741711146.9512374,-0.934459,0.365024,0.156343,-0.6212500000000001,-0.1925,0.41125
1741711146.9545178,-0.935984,0.36356,0.15616,-0.60375,-0.3325,0.44625
1741711146.9568946,-0.937143,0.3636209999999999,0.157868,-0.14875,-0.315,0.34125
1741711146.9592657,-0.938241,0.363072,0.155916,0.06125,-0.42,0.4025
1741711146.9616375,-0.938851,0.362523,0.155916,0.13125,-0.44625,0.455
1741711146.9639463,-0.93818,0.366427,0.157258,0.27125,-0.39375,0.525
1741711146.9662027,-0.942145,0.36539,0.155367,-0.21,-0.35,0.8225000000000001
1741711146.969061,-0.936716,0.36661,0.154269,-0.5775,-0.35,1.015
1741711146.9721043,-0.923418,0.364719,0.155794,-0.8225000000000001,-0.21,0.8662500000000001
1741711146.9749153,-0.938363,0.363682,0.151768,-0.44625,-0.1575,0.6562500000000001
1741711146.9775906,-0.936655,0.367525,0.162077,-0.49875,-0.30625,0.56
1741711146.9798946,-0.940376,0.365634,0.153049,-0.28,-0.18375,0.48125
1741711146.982171,-0.937509,0.3691109999999999,0.157258,-0.06125,-0.20125,0.55125
1741711146.984433,-0.938729,0.3648409999999999,0.156587,0.14875,-0.21,0.55125
1741711146.9876883,-0.936899,0.367403,0.1600639999999999,0.0525,-0.2275,0.6212500000000001
1741711146.9902337,-0.941169,0.3654509999999999,0.156343,-2.19625,-0.44625,0.6825000000000001
1741711146.992455,-0.935191,0.3654509999999999,0.158661,-0.1225,-0.5075000000000001,0.8137500000000001
1741711146.9946992,-0.948245,0.365817,0.1539029999999999,-0.175,-0.25375,0.7962500000000001
1741711146.996955,-0.937692,0.363438,0.161467,-0.41125,-0.3325,0.7962500000000001
1741711146.9992273,-0.936228,0.365878,0.154696,-0.5425000000000001,-0.1575,0.7175
1741711147.002139,-0.936533,0.367159,0.169214,-0.83125,-0.3325,0.48125
1741711147.005086,-0.933605,0.366488,0.170739,-0.6212500000000001,-0.2275,0.49
1741711147.0077455,-0.922686,0.36478,0.157441,-0.35,-0.35,0.34125
1741711147.01111,-0.93513,0.367769,0.157319,0.1225,-0.39375,0.315
1741711147.0136774,-0.939095,0.3657559999999999,0.156526,0.20125,-0.2975,0.2975
1741711147.0160792,-0.936838,0.365939,0.155306,0.1225,-0.4375,0.5775
1741711147.0184946,-0.943609,0.361181,0.154757,-0.25375,-0.2975,0.56
1741711147.0214648,-0.939766,0.365329,0.156282,-0.58625,-0.32375,0.7262500000000001
1741711147.0242164,-0.938485,0.363255,0.156099,-0.7000000000000001,-0.41125,0.83125
1741711147.0265677,-0.94245,0.363682,0.15677,-0.6125,-0.23625,0.69125
1741711147.028823,-0.937448,0.367342,0.158966,-0.5075000000000001,-0.25375,0.69125
1741711147.0312622,-0.9333,0.364658,0.156221,-0.39375,-0.1575,0.5337500000000001
1741711147.0336404,-0.939644,0.36051,0.15677,-0.14875,-0.21875,0.41125
1741711147.0367527,-0.937753,0.3672809999999999,0.1603689999999999,-0.0525,-0.21,0.49875
1741711147.0394638,-0.935008,0.361181,0.160552,0.1575,-0.25375,0.49875
1741711147.042291,-0.951966,0.363072,0.156648,-0.105,-0.4375,0.5162500000000001
1741711147.0447085,-0.940742,0.36173,0.15494,0.0525,-0.42875,0.5687500000000001
1741711147.0470817,-0.935435,0.3657559999999999,0.157319,-0.27125,-0.41125,0.5425000000000001
1741711147.0493426,-0.942328,0.362462,0.1523779999999999,-0.18375,-0.37625,0.6737500000000001
1741711147.051708,-0.940254,0.364658,0.150975,-0.4725,-0.18375,0.6562500000000001
1741711147.055147,-0.937326,0.361669,0.15372,-0.6125,-0.20125,0.6475000000000001
1741711147.057614,-0.952393,0.365085,0.155062,-0.55125,-0.175,0.7525000000000001
1741711147.0599794,-0.939278,0.362767,0.1579289999999999,-0.42,-0.27125,0.60375
1741711147.062322,-0.939522,0.363072,0.159027,-0.35,-0.3325,0.5687500000000001
1741711147.0646336,-0.934581,0.3639259999999999,0.160003,-0.1575,-0.28875,0.525
1741711147.0669572,-0.942145,0.362096,0.1535979999999999,-0.14,-0.3675,0.5337500000000001
1741711147.0701776,-0.939888,0.362218,0.154635,0.0,-0.35,0.5162500000000001
1741711147.072881,-0.938668,0.363133,0.143167,-0.00875,-0.1925,0.7612500000000001
1741711147.0757945,-0.940864,0.364414,0.1579289999999999,-0.245,-0.14,0.91875
1741711147.078153,-0.934764,0.366488,0.160247,-0.4375,-0.28875,0.6562500000000001
1741711147.0803604,-0.934398,0.362645,0.15555,-0.3675,-0.27125,0.6737500000000001
1741711147.082564,-0.949038,0.366915,0.155855,-0.385,-0.2625,0.6737500000000001
1741711147.0848668,-0.937448,0.364963,0.157441,-0.4375,-0.39375,0.5162500000000001
1741711147.088017,-0.941962,0.365939,0.156282,-0.21,-0.20125,0.5425000000000001
1741711147.0905027,-0.935862,0.363133,0.156831,-0.07875,-0.30625,0.6562500000000001
1741711147.0928552,-0.937509,0.363743,0.16104,-0.20125,-0.4725,0.48125
1741711147.0951476,-0.937692,0.363011,0.161345,-0.105,-0.32375,0.6825000000000001
1741711147.0977705,-0.936838,0.366,0.156526,-0.3675,-0.3325,0.49
1741711147.1033266,-0.936777,0.366305,0.1412759999999999,-0.39375,-0.28875,0.805
1741711147.1074965,-0.94123,0.365329,0.155855,-0.37625,-0.315,0.5337500000000001
1741711147.1113596,-0.935435,0.3648409999999999,0.157685,-0.18375,-0.35,0.49
1741711147.1146595,-0.937082,0.362889,0.15738,-0.21,-0.32375,0.455
1741711147.1187868,-0.933483,0.36539,0.157441,-0.28875,-0.175,0.60375
1741711147.1221647,-0.952332,0.363133,0.156953,-0.0525,-0.315,0.56
1741711147.127311,-0.93696,0.3666709999999999,0.156831,-0.27125,-0.34125,0.4725
1741711147.1319542,-0.937143,0.36295,0.1551229999999999,-0.2975,-0.3675,0.5425000000000001
1741711147.13642,-0.93757,0.3636209999999999,0.155001,-0.30625,-0.39375,0.6125
1741711147.1408248,-0.937326,0.363316,0.157685,-0.41125,-0.30625,0.525
1741711147.1461334,-0.935374,0.36356,0.157197,-0.25375,-0.21,0.5162500000000001
1741711147.1488168,-0.933605,0.364597,0.158295,-0.28,-0.11375,0.5337500000000001
1741711147.1528118,-0.940437,0.362645,0.157868,-0.11375,-0.32375,0.5775
1741711147.1554823,-0.93696,0.363255,0.160003,-0.14875,-0.32375,0.55125
1741711147.1579614,-0.942755,0.361547,0.155001,-0.14875,-0.28875,0.5687500000000001
1741711147.160369,-0.938424,0.364902,0.1535979999999999,-0.2625,-0.32375,0.6562500000000001
1741711147.163035,-0.943487,0.364048,0.15189,-0.23625,-0.23625,0.7350000000000001
1741711147.166141,-0.935923,0.3663659999999999,0.15799,-0.6212500000000001,-0.2975,0.77875
1741711147.1705215,-0.936594,0.367037,0.154879,-0.55125,-0.44625,0.6737500000000001
1741711147.1737528,-0.934032,0.362035,0.159271,-0.315,-0.385,0.60375
1741711147.1779633,-0.93757,0.363194,0.156831,-0.16625,-0.2625,0.6300000000000001
1741711147.1813982,-0.93574,0.36234,0.1579289999999999,0.06125,-0.21,0.6475000000000001
1741711147.1848583,-0.937021,0.363133,0.153537,-0.06125,-0.2625,0.6125
1741711147.18933,-0.938546,0.367525,0.158966,-0.18375,-0.3325,0.7175
1741711147.192098,-0.936167,0.3678909999999999,0.157807,-0.28875,-0.30625,0.69125
1741711147.2026742,-0.935923,0.363499,0.153781,-0.385,-0.16625,0.7000000000000001
1741711147.207399,-0.935984,0.364353,0.154696,-0.20125,-0.16625,0.5425000000000001
1741711147.210413,-0.936594,0.363133,0.156343,-0.0175,-0.32375,0.6125
1741711147.2130997,-0.939034,0.363804,0.155062,-0.00875,-0.41125,0.5950000000000001
1741711147.2158377,-0.936533,0.365939,0.155977,-0.21,-0.49875,0.6212500000000001
1741711147.218896,-0.939827,0.365024,0.1548179999999999,-0.41125,-0.23625,0.5687500000000001
1741711147.2222185,-0.936228,0.364719,0.157563,-0.5775,-0.175,0.6300000000000001
1741711147.225055,-0.933727,0.364719,0.1579289999999999,-0.6825000000000001,-0.23625,0.55125
1741711147.2301617,-0.937936,0.363804,0.158356,-0.18375,-0.37625,0.41125
1741711147.2327995,-0.939034,0.3642309999999999,0.157502,-0.105,-0.37625,0.30625
1741711147.2385132,-0.942023,0.362462,0.156648,-0.1225,-0.4375,0.5775
1741711147.2416062,-0.937509,0.365024,0.155306,-0.34125,-0.23625,0.77
1741711147.244171,-0.938119,0.364597,0.158966,-0.5425000000000001,-0.18375,0.74375
1741711147.2470844,-0.939339,0.36234,0.155916,-0.6737500000000001,-0.11375,0.77
1741711147.2498484,-0.938668,0.362218,0.158905,-0.6475000000000001,-0.2625,0.74375
1741711147.2528253,-0.932019,0.363255,0.155611,-0.3325,-0.07875,0.6212500000000001
1741711147.2563903,-0.935374,0.3645359999999999,0.157502,-0.04375,-0.27125,0.4725
1741711147.2610145,-0.937021,0.365207,0.155977,0.07875,-0.455,0.4375
1741711147.2640574,-0.934581,0.364902,0.158295,0.09625,-0.3325,0.42
1741711147.267074,-0.939095,0.365634,0.169702,-0.0875,-0.28875,0.60375
1741711147.27122,-0.938119,0.36295,0.155794,-0.5075000000000001,-0.1575,0.6825000000000001
1741711147.2741106,-0.934337,0.362096,0.156465,-0.7000000000000001,-0.2625,0.5337500000000001
1741711147.2774467,-0.935313,0.361181,0.154574,-0.5075000000000001,-0.35,0.4725
1741711147.2800336,-0.93452,0.360876,0.155855,-0.4025,-0.28875,0.55125
1741711147.282829,-0.932934,0.364414,0.159088,-0.25375,-0.27125,0.5950000000000001
1741711147.285565,-0.936289,0.359961,0.165188,0.0175,-0.28875,0.41125
1741711147.2907038,-0.933178,0.364475,0.155489,0.14,-0.18375,0.4025
1741711147.2941885,-0.946964,0.3660609999999999,0.157014,-0.13125,-0.2975,0.63875
1741711147.2971883,-0.952637,0.367952,0.155489,-0.32375,-0.455,0.8750000000000001
1741711147.301583,-0.946293,0.366549,0.15982,-0.14,-0.385,0.665
1741711147.3058276,-0.943121,0.363743,0.15677,-0.315,-0.5425000000000001,0.77
1741711147.3083737,-0.94184,0.365024,0.158783,-0.6475000000000001,-0.60375,0.6562500000000001
1741711147.311171,-0.934337,0.365695,0.1597589999999999,-0.945,-0.42,0.8575
1741711147.3139143,-0.934947,0.364048,0.1582339999999999,-0.8662500000000001,-0.385,0.6475000000000001
1741711147.3180988,-0.933239,0.361791,0.162382,-0.6125,-0.28,0.30625
1741711147.3213687,-0.934459,0.361974,0.162016,-0.27125,-0.0525,0.28
1741711147.3239963,-0.933788,0.36112,0.159393,-0.04375,-0.13125,0.42875
1741711147.3274922,-0.93513,0.361303,0.157197,0.4725,-0.11375,0.58625
1741711147.331077,-0.942023,0.366549,0.158295,0.32375,-0.35,0.8925000000000001
1741711147.3335855,-0.942999,0.366488,0.158051,0.1575,-0.39375,1.00625
1741711147.3364997,-0.943975,0.366244,0.1586,-0.3325,-0.21875,1.00625
1741711147.3396606,-0.938668,0.365024,0.1548179999999999,-0.5775,0.25375,0.8400000000000001
1741711147.3438022,-0.928664,0.365939,0.158661,-0.95375,0.525,0.9275
1741711147.348765,-0.929396,0.364658,0.15311,-0.5687500000000001,0.25375,0.49875
1741711147.351576,-0.93513,0.364719,0.154879,0.035,-0.21,0.5075000000000001
1741711147.354789,-0.938912,0.3654509999999999,0.15616,0.8225000000000001,-0.7087500000000001,0.3675
1741711147.3636365,-0.937448,0.366,0.141398,0.315,-0.9275,0.5775
1741711147.3677566,-0.933483,0.365085,0.155733,-1.4875,-0.48125,0.5075000000000001
1741711147.372937,-0.930921,0.363865,0.161711,-1.2075,-0.44625,0.13125
1741711147.375744,-0.93635,0.361059,0.160552,-0.4025,-0.35875,0.20125
1741711147.3791158,-0.944829,0.361974,0.163114,0.1575,-0.6737500000000001,0.21
1741711147.383765,-0.947391,0.361364,0.16043,0.58625,-0.46375,0.7875000000000001
1741711147.3873453,-0.945805,0.36234,0.160552,-0.0525,0.06125,1.4087500000000002
1741711147.391303,-0.935374,0.365268,0.154635,-0.7175,0.48125,1.33
1741711147.3952396,-0.93025,0.367159,0.157746,-0.91,0.5337500000000001,1.0762500000000002
1741711147.3983214,-0.925736,0.365573,0.154696,-0.525,0.245,0.5337500000000001
1741711147.404119,-0.929091,0.364475,0.156038,0.77,-0.5425000000000001,-0.105
1741711147.4071598,-0.939217,0.36417,0.154086,0.93625,-0.7525000000000001,0.14
1741711147.4102497,-0.943548,0.362706,0.157441,0.77,-0.95375,0.245
1741711147.4139009,-0.943487,0.365512,0.1545129999999999,-0.35,-0.98875,0.83125
1741711147.4168956,-0.939949,0.36295,0.154452,-1.1375000000000002,-0.7525000000000001,1.0325000000000002
1741711147.420619,-0.934459,0.364292,0.158051,-1.995,-0.455,0.8575
1741711147.4237678,-0.932019,0.364109,0.158356,-1.8375,-0.2625,0.8662500000000001
1741711147.4296646,-0.937387,0.362218,0.160918,0.16625,0.035,0.2975
1741711147.4338548,-0.934459,0.363682,0.1609789999999999,0.7962500000000001,0.105,0.39375
1741711147.436627,-0.939156,0.3663659999999999,0.140727,1.12875,0.00875,0.48125
1741711147.4407475,-0.94123,0.36539,0.152195,-0.16625,-0.18375,1.16375
1741711147.4435558,-0.936533,0.368928,0.15677,-0.6475000000000001,-0.0875,1.18125
1741711147.4464097,-0.934337,0.3691109999999999,0.155428,-0.90125,-0.16625,0.98
1741711147.4499469,-0.93208,0.370819,0.160125,-0.93625,-0.455,0.58625
1741711147.454226,-0.933361,0.3651459999999999,0.157197,-0.49875,-0.63875,0.245
1741711147.4570343,-0.933361,0.367403,0.157868,0.00875,-0.7875000000000001,0.16625
1741711147.4604664,-0.941291,0.365939,0.155977,0.07875,-0.83125,0.32375
1741711147.463949,-0.943182,0.367037,0.162138,-0.11375,-0.7525000000000001,0.49875
1741711147.468558,-0.943609,0.366854,0.159576,-0.385,-0.2975,0.74375
1741711147.4716947,-0.935618,0.364109,0.156526,-0.91875,-0.0525,0.945
1741711147.4751706,-0.932263,0.365939,0.164578,-1.1375000000000002,0.07875,0.83125
1741711147.4777336,-0.935984,0.369843,0.16043,-0.6212500000000001,-0.06125,0.7175
1741711147.4838722,-0.935191,0.361547,0.162016,0.315,-0.2625,0.35875
1741711147.4877176,-0.938912,0.361852,0.153232,0.93625,-0.0525,0.30625
1741711147.4921668,-0.947818,0.365939,0.154269,-0.5075000000000001,-0.1925,1.015
1741711147.4984283,-0.935496,0.365329,0.1582339999999999,0.13125,-0.455,0.5775
1741711147.5020237,-0.944768,0.367037,0.15433,-0.315,-0.6562500000000001,0.4725
1741711147.508456,-0.932324,0.364658,0.152134,-0.93625,-0.2975,0.455
1741711147.5114484,-0.940742,0.358863,0.152927,-0.14,-0.455,0.1575
1741711147.5176108,-0.934276,0.3648409999999999,0.15616,-0.175,0.105,0.4375
1741711147.521309,-0.930067,0.362401,0.155611,0.1575,-0.16625,0.42875
1741711147.5262578,-0.948184,0.3675859999999999,0.155672,-0.6562500000000001,-0.525,1.1462500000000002
1741711147.5290558,-0.947452,0.3672809999999999,0.161589,-0.7350000000000001,-0.7087500000000001,1.3825
1741711147.5339935,-0.938119,0.36417,0.165188,-0.105,-0.525,0.7350000000000001
1741711147.541155,-0.928115,0.364292,0.153232,-0.805,0.105,0.5687500000000001
1741711147.5440843,-0.934215,0.363804,0.15738,-0.7875000000000001,-0.0875,0.6300000000000001
1741711147.547047,-0.936655,0.363377,0.164639,-0.21,-0.34125,0.42875
1741711147.5498304,-0.938302,0.367952,0.1603689999999999,0.5687500000000001,-0.4725,0.28875
1741711147.5524642,-0.934581,0.3694159999999999,0.162077,1.2600000000000002,-0.5337500000000001,0.35
1741711147.5556922,-0.941535,0.365329,0.153537,0.91,-0.5775,0.6562500000000001
1741711147.5587454,-0.945073,0.365817,0.1465219999999999,-0.7612500000000001,-0.28875,0.9975
1741711147.5616517,-0.93757,0.3672809999999999,0.155733,-1.72375,-0.42875,1.11125
1741711147.567082,-0.932751,0.3651459999999999,0.159332,-0.6475000000000001,0.11375,0.4725
1741711147.5729308,-0.93574,0.362828,0.155855,-0.035,-0.1925,0.23625
1741711147.5787673,-0.937326,0.363987,0.156038,0.20125,-0.46375,0.8225000000000001
1741711147.581953,-0.943975,0.367769,0.15677,0.2275,-0.63875,0.945
1741711147.5872023,-0.943548,0.368928,0.1597589999999999,-0.04375,-0.5687500000000001,0.7087500000000001
1741711147.5911028,-0.927017,0.365634,0.154086,-0.7262500000000001,0.0175,0.49
1741711147.594671,-0.930921,0.361486,0.154452,-1.2775,-0.25375,0.41125
1741711147.5981083,-0.934947,0.363194,0.158356,-0.8750000000000001,-0.28875,0.39375
1741711147.602038,-0.939644,0.366305,0.164517,0.39375,-0.7175,0.14
1741711147.6077251,-0.946781,0.3636209999999999,0.160186,0.5425000000000001,-0.3325,0.6125
1741711147.611374,-0.940681,0.363987,0.152622,-0.4025,-0.20125,1.1725
1741711147.618117,-0.931775,0.363804,0.158783,-1.12875,0.1225,0.8662500000000001
1741711147.621834,-0.93208,0.361608,0.158905,-0.7000000000000001,0.1575,0.55125
1741711147.628019,-0.940193,0.363682,0.171715,0.49875,-0.34125,0.18375
1741711147.6327748,-0.939644,0.363377,0.158722,0.56,-0.6825000000000001,0.5075000000000001
1741711147.6373365,-0.945805,0.365024,0.154269,-0.245,-0.5775,1.05875
1741711147.6405811,-0.94428,0.363804,0.155733,-1.09375,-0.525,1.12
1741711147.6437805,-0.937509,0.363316,0.154391,-1.505,-0.4375,0.98
1741711147.647468,-0.931409,0.365878,0.1579289999999999,-1.225,-0.39375,0.46375
1741711147.65127,-0.934764,0.364048,0.157685,-0.42875,-0.0875,0.385
1741711147.6548398,-0.939339,0.365085,0.160491,0.2625,-0.25375,0.34125
1741711147.6599314,-0.942206,0.364475,0.157868,0.665,-0.30625,0.46375
1741711147.663997,-0.941169,0.368318,0.156465,0.0875,-0.175,1.04125
1741711147.6677113,-0.935862,0.366183,0.153964,-0.69125,-0.16625,0.945
1741711147.672007,-0.932019,0.363682,0.156587,-1.1462500000000002,-0.2275,0.63875
1741711147.6742742,-0.936472,0.369477,0.158356,-0.98875,-0.13125,0.5687500000000001
1741711147.6765594,-0.931775,0.364963,0.160247,-0.315,-0.23625,0.41125
1741711147.6798172,-0.933727,0.364109,0.158905,0.18375,-0.21,0.175
1741711147.6830678,-0.93879,0.364475,0.157441,0.42,-0.525,0.35
1741711147.68555,-0.942755,0.365024,0.152256,0.41125,-0.7000000000000001,0.48125
1741711147.6898508,-0.940498,0.364475,0.156221,-0.21,-0.69125,0.805
1741711147.6928422,-0.943182,0.364292,0.155428,-0.7262500000000001,-0.42,0.83125
1741711147.695725,-0.939339,0.3657559999999999,0.159332,-0.9625,-0.35,0.7962500000000001
1741711147.6987426,-0.937326,0.36478,0.155428,-0.8925000000000001,0.035,0.49875
1741711147.7024374,-0.934154,0.362828,0.156038,-0.35,0.07,0.35875
1741711147.7057457,-0.936899,0.363499,0.157136,0.18375,-0.13125,0.2975
1741711147.7090774,-0.9394,0.365268,0.157746,0.28875,-0.175,0.4375
1741711147.7117324,-0.935984,0.363255,0.160552,0.4025,-0.385,0.525
1741711147.714754,-0.941718,0.364292,0.156099,0.2975,-0.35,0.6475000000000001
1741711147.7189226,-0.939034,0.36295,0.156221,-0.3675,-0.34125,0.9275
1741711147.7222872,-0.933788,0.3657559999999999,0.1539029999999999,-0.88375,-0.2975,0.8575
1741711147.7255592,-0.933422,0.36417,0.1594539999999999,-0.8662500000000001,-0.30625,0.6475000000000001
1741711147.728404,-0.937204,0.36478,0.158661,-0.5775,-0.3675,0.6212500000000001
1741711147.7310023,-0.933178,0.366854,0.161955,-0.25375,-0.3675,0.49875
1741711147.7334816,-0.934947,0.364658,0.162687,0.04375,-0.3675,0.3675
1741711147.7361157,-0.934398,0.365024,0.158905,0.1225,-0.41125,0.3675
1741711147.739261,-0.939034,0.363743,0.157136,0.0875,-0.5075000000000001,0.665
1741711147.741886,-0.937387,0.361608,0.15433,-0.20125,-0.4725,0.6125
1741711147.744198,-0.938973,0.36722,0.153537,-0.25375,-0.49,0.7262500000000001
1741711147.7470276,-0.940071,0.364109,0.152317,-0.6212500000000001,-0.27125,0.97125
1741711147.749477,-0.938607,0.36295,0.156526,-0.7262500000000001,-0.21,0.7875000000000001
1741711147.7520905,-0.935679,0.365268,0.162992,-0.5775,-0.2275,0.7612500000000001
1741711147.755236,-0.949404,0.3645359999999999,0.1600639999999999,-0.46375,-0.1925,0.6300000000000001
1741711147.7578669,-0.937631,0.362401,0.159393,-0.34125,-0.18375,0.5950000000000001
1741711147.760597,-0.935496,0.36478,0.160003,-0.00875,-0.2275,0.5162500000000001
1741711147.7631357,-0.934642,0.361852,0.162504,0.21875,-0.0875,0.4375
1741711147.7654912,-0.939339,0.363133,0.1582339999999999,0.0875,-0.13125,0.5775
1741711147.7677853,-0.938241,0.367464,0.160857,-0.06125,-0.11375,0.69125
1741711147.7702308,-0.938668,0.366,0.155245,-0.455,-0.18375,0.7175
1741711147.773283,-0.937448,0.36478,0.155977,-0.44625,-0.16625,0.74375
1741711147.775683,-0.93269,0.3678909999999999,0.161223,-0.4025,-0.3325,0.5950000000000001
1741711147.7780235,-0.936533,0.3657559999999999,0.154269,-0.18375,-0.35,0.6300000000000001
1741711147.7805276,-0.93757,0.365939,0.161955,-0.11375,-0.23625,0.42
1741711147.7828343,-0.932568,0.3639259999999999,0.155306,-0.1925,-0.28,0.4025
1741711147.7853217,-0.932629,0.361791,0.157502,-0.315,-0.28875,0.56
1741711147.787861,-0.931775,0.363255,0.157624,-0.35,-0.37625,0.5425000000000001
1741711147.7906692,-0.938546,0.363377,0.170373,-0.27125,-0.28875,0.69125
1741711147.7936158,-0.940559,0.3654509999999999,0.15494,-0.5162500000000001,-0.32375,0.7262500000000001
1741711147.7961671,-0.939095,0.36478,0.156953,-0.2975,-0.35875,0.6825000000000001
1741711147.7986336,-0.940315,0.364902,0.154879,-0.44625,-0.4025,0.7262500000000001
1741711147.8009498,-0.939644,0.3657559999999999,0.153415,-0.46375,-0.2975,0.7612500000000001
1741711147.803396,-0.933727,0.36356,0.1586,-0.385,-0.35875,0.665
1741711147.8063264,-0.930311,0.366549,0.158661,-0.16625,-0.21,0.7612500000000001
1741711147.8089654,-0.93696,0.3660609999999999,0.158722,-0.1225,-0.385,0.7525000000000001
1741711147.8114388,-0.941779,0.3681959999999999,0.158783,-0.18375,-0.35,0.5775
1741711147.813911,-0.940254,0.363682,0.151219,-0.37625,-0.315,0.56
1741711147.8162956,-0.94062,0.36295,0.1539029999999999,-0.16625,-0.28875,0.48125
1741711147.8194582,-0.939766,0.361852,0.159332,-0.245,-0.21,0.58625
1741711147.824825,-0.93635,0.364963,0.15677,-0.27125,-0.14875,0.41125
1741711147.8275008,-0.939949,0.366427,0.157624,-0.27125,-0.21,0.5950000000000001
1741711147.8302944,-0.939278,0.361791,0.158356,-0.175,-0.35875,0.5775
1741711147.8329704,-0.93574,0.3669759999999999,0.163602,-0.14,-0.2975,0.6475000000000001
1741711147.8365026,-0.937814,0.361791,0.158905,-0.25375,-0.20125,0.6212500000000001
1741711147.8405654,-0.935679,0.364475,0.1535979999999999,-0.18375,-0.0525,0.6125
1741711147.8465743,-0.935008,0.3636209999999999,0.155062,-0.41125,-0.11375,0.6825000000000001
1741711147.849356,-0.931531,0.362218,0.154391,-0.2975,-0.23625,0.5162500000000001
1741711147.854103,-0.934764,0.36417,0.156648,-0.14875,-0.14875,0.4725
1741711147.8606749,-0.939583,0.359351,0.15372,-0.21875,-0.39375,0.5337500000000001
1741711147.866682,-0.937021,0.363377,0.1579289999999999,-0.315,-0.37625,0.7350000000000001
1741711147.8723772,-0.937509,0.365268,0.156465,-0.7875000000000001,-0.245,0.6562500000000001
1741711147.880282,-0.933666,0.365207,0.1582339999999999,-0.5775,-0.42,0.83125
1741711147.8848803,-0.941962,0.3660609999999999,0.158966,0.0,-0.55125,0.58625
1741711147.8896902,-0.939278,0.366915,0.156953,2.205,-0.21875,0.6562500000000001
1741711147.898595,-0.934398,0.362828,0.155733,-0.07875,-0.09625,0.6475000000000001
1741711147.9023287,-0.932324,0.366244,0.1579289999999999,-0.4725,-0.21875,0.665
1741711147.9054134,-0.935374,0.3660609999999999,0.157319,0.04375,-0.39375,0.3325
1741711147.9119506,-0.94123,0.3663659999999999,0.15738,0.02625,-0.5075000000000001,0.4725
1741711147.9170024,-0.935252,0.364292,0.155794,-0.21875,-0.3325,0.60375
1741711147.922365,-0.936655,0.3666709999999999,0.155245,-0.7350000000000001,-0.21,0.69125
1741711147.9272296,-0.952149,0.363682,0.153781,-0.56,-0.35875,0.5162500000000001
1741711147.930482,-0.938424,0.362462,0.1579289999999999,-0.25375,-0.23625,0.34125
1741711147.936057,-0.940681,0.36112,0.157502,0.06125,-0.04375,0.4375
1741711147.942506,-0.941352,0.363377,0.157075,-0.175,-0.315,0.7262500000000001
1741711147.9493763,-0.938851,0.363743,0.158783,-0.5162500000000001,-0.3325,0.7000000000000001
1741711147.9533317,-0.940681,0.363682,0.156587,-0.6125,-0.28,0.77
1741711147.9576974,-0.936228,0.363255,0.159271,-0.44625,-0.18375,0.6300000000000001
1741711147.9613397,-0.937448,0.363255,0.1579289999999999,-0.1925,-0.21,0.48125
1741711147.9672456,-0.938485,0.363011,0.157746,0.0175,-0.49,0.55125
1741711147.9741857,-0.941474,0.3666709999999999,0.156709,-0.35,-0.175,0.7612500000000001
1741711147.9784176,-0.938851,0.368074,0.157624,-0.74375,-0.105,0.8662500000000001
1741711147.9825215,-0.933849,0.362096,0.16043,-0.4725,-0.06125,0.7262500000000001
1741711147.9863772,-0.938424,0.3688059999999999,0.154452,0.0175,-0.175,0.4375
1741711147.9915128,-0.934947,0.361974,0.156648,0.14875,-0.46375,0.42
1741711147.9967818,-0.938912,0.365817,0.1551229999999999,-0.3675,-0.42875,0.6825000000000001
1741711147.9992545,-0.939522,0.365573,0.15738,-0.6475000000000001,-0.385,0.6825000000000001
1741711148.0026867,-0.929457,0.3636209999999999,0.158661,-0.7612500000000001,-0.35875,0.77
1741711148.008052,-0.933178,0.361791,0.15921,-0.41125,-0.41125,0.4375
1741711148.0113194,-0.939888,0.3660609999999999,0.157624,-0.1225,-0.44625,0.5162500000000001
1741711148.018203,-0.940742,0.3654509999999999,0.159637,-0.04375,-0.32375,0.77
1741711148.0232415,-0.935679,0.364658,0.156831,-0.3675,-0.35,0.91
1741711148.0274603,-0.935984,0.366183,0.1585389999999999,-0.48125,-0.21,0.5337500000000001
1741711148.0344756,-0.939217,0.369904,0.154635,-0.2275,-0.07875,0.525
1741711148.0398154,-0.937448,0.364475,0.156709,0.20125,-0.385,0.5425000000000001
1741711148.0424397,-0.93696,0.363682,0.154696,0.2275,-0.385,0.5425000000000001
1741711148.0494852,-0.927505,0.35807,0.160857,0.00875,-0.34125,0.55125
1741711148.0534823,-0.944341,0.3694159999999999,0.15921,-0.6825000000000001,-0.23625,0.7000000000000001
1741711148.0566478,-0.938546,0.3666709999999999,0.156404,-0.7175,-0.06125,0.5950000000000001
1741711148.0612538,-0.930189,0.359778,0.151463,-0.37625,-0.18375,0.4725
1741711148.064665,-0.934032,0.360815,0.158905,0.035,-0.37625,0.3675
1741711148.0685556,-0.935435,0.3648409999999999,0.157746,0.06125,-0.44625,0.58625
1741711148.073384,-0.94184,0.368257,0.15433,-0.1575,-0.35875,0.83125
1741711148.077228,-0.93879,0.365329,0.159576,-0.6475000000000001,-0.2975,0.7350000000000001
1741711148.0832982,-0.939766,0.3669759999999999,0.156648,-0.60375,-0.32375,0.455
1741711148.085894,-0.936655,0.36234,0.156953,-0.41125,-0.1925,0.4725
1741711148.0908272,-0.940254,0.365085,0.1588439999999999,0.105,-0.44625,0.5687500000000001
1741711148.0944989,-0.935618,0.363255,0.157624,-0.02625,-0.30625,0.58625
1741711148.1008766,-0.940803,0.362767,0.159393,-0.3675,-0.245,0.7087500000000001
1741711148.1082342,-0.935069,0.36722,0.1594539999999999,-0.48125,-0.175,0.7612500000000001
1741711148.1137884,-0.937753,0.362462,0.157014,0.0,-0.13125,0.455
1741711148.119202,-0.940498,0.363133,0.155855,0.105,-0.3325,0.5162500000000001
1741711148.1257694,-0.941169,0.365695,0.153537,-0.25375,-0.2625,0.83125
1741711148.1330056,-0.939095,0.365024,0.1708,-0.5950000000000001,-0.37625,0.83125
1741711148.1361513,-0.93513,0.3657559999999999,0.159576,-0.5425000000000001,-0.315,0.6212500000000001
1741711148.1410875,-0.935862,0.365878,0.15677,-0.2275,-0.21875,0.6212500000000001
1741711148.1486225,-0.922015,0.36722,0.1579289999999999,-0.0875,-0.245,0.5337500000000001
1741711148.1568534,-0.938546,0.365024,0.157014,-0.4025,-0.315,0.46375
1741711148.1609683,-0.938302,0.36478,0.158295,-0.25375,-0.39375,0.44625
1741711148.1678443,-0.938363,0.364658,0.155733,-0.245,-0.42,0.525
1741711148.1713848,-0.939034,0.3666709999999999,0.156709,-0.5162500000000001,-0.3675,0.6737500000000001
1741711148.1775527,-0.936045,0.363377,0.159393,-0.2625,-0.315,0.6475000000000001
1741711148.1802824,-0.935374,0.362584,0.14396,0.02625,-0.2275,0.4025
1741711148.182825,-0.937753,0.362645,0.157136,-0.16625,-0.20125,0.5950000000000001
1741711148.185575,-0.938485,0.360815,0.157563,-0.14875,-0.2275,0.6125
1741711148.1893785,-0.939034,0.363865,0.161955,-0.1225,-0.21875,0.7262500000000001
1741711148.194063,-0.941718,0.364658,0.158295,-0.00875,-0.39375,0.5950000000000001
1741711148.1979604,-0.9333,0.360083,0.158783,-0.1925,-0.1575,0.5075000000000001
1741711148.202339,-0.921832,0.36417,0.154147,-0.525,-0.105,0.6562500000000001
1741711148.2053678,-0.944768,0.365573,0.156404,-0.5075000000000001,-0.14,0.58625
1741711148.2103071,-0.940742,0.366183,0.160613,-0.245,-0.245,0.5337500000000001
1741711148.2167108,-0.939034,0.361913,0.15433,-0.14875,-0.525,0.60375
1741711148.2214606,-0.934581,0.364109,0.151158,-0.32375,-0.3675,0.6825000000000001
1741711148.2241073,-0.931836,0.362279,0.152317,-0.525,-0.1575,0.5950000000000001
1741711148.226998,-0.941596,0.365024,0.1542079999999999,-0.5162500000000001,-0.2975,0.55125
1741711148.2305677,-0.936411,0.360632,0.15738,-0.28,-0.32375,0.42
1741711148.2328837,-0.944463,0.363499,0.163968,-0.46375,-0.2625,0.46375
1741711148.23548,-0.942206,0.361852,0.149206,-0.2625,-0.35875,0.525
1741711148.2385848,-0.935374,0.362645,0.154574,-0.41125,-0.5162500000000001,0.6212500000000001
1741711148.245186,-0.940925,0.363804,0.161894,-0.23625,-0.385,0.7350000000000001
1741711148.249069,-0.933971,0.362279,0.153842,-0.30625,-0.0875,0.63875
1741711148.2515428,-0.935313,0.362157,0.140544,-0.63875,-0.0875,0.805
1741711148.2540748,-0.942328,0.3697209999999999,0.156892,-0.7612500000000001,-0.0525,0.69125
1741711148.258846,-0.934581,0.364658,0.158478,-0.04375,-0.25375,0.315
1741711148.2628288,-0.937875,0.359717,0.159515,0.42,-0.245,0.3675
1741711148.2680924,-0.94001,0.366305,0.157258,-0.06125,-0.2975,0.6300000000000001
1741711148.2729294,-0.938668,0.366,0.157136,-0.4375,-0.2975,0.6562500000000001
1741711148.2778184,-0.938973,0.365024,0.159637,-0.455,-0.30625,0.6125
1741711148.280938,-0.936289,0.362889,0.156892,-0.2975,-0.28875,0.5162500000000001
1741711148.2862902,-0.93513,0.360815,0.155855,-0.30625,-0.23625,0.39375
1741711148.2897415,-0.939095,0.364658,0.1582339999999999,-0.16625,-0.4025,0.5162500000000001
1741711148.2944348,-0.942267,0.365573,0.156343,-0.18375,-0.3675,0.5687500000000001
1741711148.298882,-0.933483,0.3675859999999999,0.156587,-0.2975,-0.2975,0.7350000000000001
1741711148.3014784,-0.94001,0.366427,0.169885,-0.5337500000000001,-0.14875,0.8750000000000001
1741711148.3041346,-0.93147,0.365329,0.155001,-0.6300000000000001,-0.2975,0.805
1741711148.3084202,-0.937387,0.365573,0.1594539999999999,-0.455,-0.3675,0.525
1741711148.3134675,-0.937753,0.36173,0.160125,0.04375,-0.37625,0.4725
1741711148.3183076,-0.938607,0.365573,0.156282,-0.0525,-0.385,0.6125
1741711148.3211887,-0.938973,0.362828,0.159332,-0.34125,-0.23625,0.74375
1741711148.3253906,-0.939644,0.365085,0.156709,-0.44625,-0.1575,0.7612500000000001
1741711148.330869,-0.938729,0.364475,0.16226,-0.4025,-0.06125,0.7000000000000001
1741711148.3370304,-0.934764,0.3657559999999999,0.158112,-0.09625,-0.1225,0.48125
1741711148.3406966,-0.936594,0.36661,0.155672,0.00875,-0.34125,0.44625
1741711148.344224,-0.940254,0.364353,0.157136,-0.105,-0.385,0.525
1741711148.347487,-0.936655,0.363255,0.157075,-0.21,-0.315,0.74375
1741711148.3507912,-0.93635,0.3648409999999999,0.156282,-0.49,-0.11375,0.7350000000000001
1741711148.3545322,-0.936411,0.361547,0.157807,-0.5162500000000001,-0.25375,0.7262500000000001
1741711148.359331,-0.935923,0.363865,0.157319,-0.34125,-0.42,0.6125
1741711148.363669,-0.937509,0.365024,0.156221,-0.21,-0.30625,0.4725
1741711148.366753,-0.939583,0.368074,0.156404,-0.21,-0.3325,0.55125
1741711148.3693902,-0.935069,0.363438,0.155855,-0.21,-0.3325,0.6562500000000001
1741711148.3727903,-0.933544,0.3645359999999999,0.159088,-0.42,-0.23625,0.74375
1741711148.3798623,-0.935557,0.365024,0.155184,-0.525,-0.245,0.58625
1741711148.384396,-0.934581,0.365207,0.15677,-0.175,-0.4375,0.4725
1741711148.3874502,-0.938424,0.3669759999999999,0.158295,-0.25375,-0.2975,0.6475000000000001
1741711148.3912346,-0.941535,0.366244,0.157014,-0.175,-0.30625,0.5075000000000001
1741711148.394792,-0.937326,0.364414,0.160308,0.0,-0.385,0.6562500000000001
1741711148.400594,-0.938851,0.364109,0.1594539999999999,-0.21875,-0.35875,0.6212500000000001
1741711148.4069748,-0.937692,0.36539,0.160552,-0.44625,-0.20125,0.49
1741711148.4098482,-0.93574,0.364597,0.158356,-0.2275,-0.13125,0.4725
1741711148.4130538,-0.937875,0.36356,0.154635,-0.06125,-0.14,0.3675
1741711148.416835,-0.936167,0.362218,0.155367,-0.07,-0.27125,0.55125
1741711148.4203613,-0.938424,0.363743,0.1600639999999999,-0.21,-0.37625,0.6212500000000001
1741711148.4232397,-0.949892,0.362523,0.15433,-0.245,-0.385,0.6475000000000001
1741711148.4299395,-0.939705,0.363255,0.156526,-0.385,-0.20125,0.5775
1741711148.433004,-0.933727,0.365024,0.15555,-0.3325,-0.21875,0.5950000000000001
1741711148.436433,-0.938302,0.363499,0.155245,-0.35,-0.245,0.6212500000000001
1741711148.439823,-0.947513,0.366122,0.155184,-0.14,-0.20125,0.46375
1741711148.4440398,-0.93635,0.360266,0.157075,-0.245,-0.48125,0.6562500000000001
1741711148.4504004,-0.93757,0.362157,0.154269,-0.385,-0.27125,0.7175
1741711148.453598,-0.93574,0.362157,0.156648,-0.3675,-0.4025,0.63875
1741711148.4568756,-0.937692,0.363804,0.152805,-0.41125,-0.16625,0.63875
1741711148.4605606,-0.933544,0.362889,0.156526,-0.2625,-0.21875,0.525
1741711148.4665325,-0.937997,0.363438,0.158173,-0.28,-0.3675,0.5687500000000001
1741711148.4717588,-0.935862,0.365573,0.158295,-0.1575,-0.25375,0.6300000000000001
1741711148.474731,-0.936167,0.363072,0.157441,-0.34125,-0.21875,0.6212500000000001
1741711148.4781995,-0.937265,0.361974,0.156587,-0.4375,-0.2275,0.8575
1741711148.4821012,-0.934703,0.364475,0.158356,-0.455,-0.34125,0.7262500000000001
1741711148.4864438,-0.936228,0.367098,0.157502,-0.4375,-0.315,0.6737500000000001
1741711148.489446,-0.936411,0.362889,0.141337,-0.105,-0.14,0.5075000000000001
1741711148.4928637,-0.936716,0.362523,0.157868,-0.04375,-0.2625,0.5075000000000001
1741711148.497293,-0.937997,0.3645359999999999,0.156526,-0.28,-0.25375,0.5687500000000001
1741711148.4999058,-0.937143,0.366854,0.14091,-0.23625,-0.2975,0.7350000000000001
1741711148.5023203,-0.941657,0.368135,0.1586,-0.2625,-0.3675,0.6125
1741711148.5051448,-0.941047,0.366244,0.153842,-0.34125,-0.315,0.5950000000000001
1741711148.5119717,-0.937326,0.364719,0.154757,-0.35,-0.18375,0.5687500000000001
1741711148.5178106,-0.938912,0.3663659999999999,0.160186,-0.37625,-0.20125,0.49875
1741711148.5218742,-0.936838,0.363682,0.156465,-0.30625,-0.28875,0.665
1741711148.5279818,-0.922747,0.366488,0.158417,-0.23625,-0.37625,0.63875
1741711148.5359912,-0.935313,0.365512,0.156892,-0.34125,-0.3325,0.58625
1741711148.5408444,-0.93757,0.366915,0.158905,-0.2625,-0.25375,0.6562500000000001
1741711148.5441418,-0.938058,0.364353,0.1579289999999999,-0.20125,-0.25375,0.5162500000000001
1741711148.54919,-0.936167,0.363194,0.1545129999999999,-0.0875,-0.28,0.525
1741711148.5522065,-0.937509,0.363316,0.159027,-0.27125,-0.2275,0.58625
1741711148.5549345,-0.939095,0.366488,0.1579289999999999,-0.21,-0.245,0.6212500000000001
1741711148.5588765,-0.938302,0.365329,0.157258,-0.4375,-0.30625,0.6300000000000001
1741711148.5627208,-0.950807,0.3645359999999999,0.153537,-0.4025,-0.2975,0.69125
1741711148.5659003,-0.93696,0.361608,0.156343,-0.16625,-0.20125,0.6825000000000001
1741711148.5689752,-0.939095,0.3645359999999999,0.155062,-0.27125,-0.28875,0.5162500000000001
1741711148.5717716,-0.952454,0.363011,0.156343,-0.28,-0.32375,0.6212500000000001
1741711148.5757258,-0.935374,0.3645359999999999,0.156953,-0.25375,-0.28,0.55125
1741711148.5790756,-0.939949,0.364658,0.1545129999999999,-0.06125,-0.28875,0.56
1741711148.5832448,-0.93635,0.364719,0.158173,-0.2975,-0.37625,0.665
1741711148.5884745,-0.935008,0.3645359999999999,0.158966,-0.35,-0.42,0.74375
1741711148.5940375,-0.9394,0.361791,0.157075,-0.4375,-0.385,0.6562500000000001
1741711148.5998473,-0.938363,0.366183,0.15738,-0.315,-0.315,0.60375
1741711148.6057675,-0.93696,0.364963,0.159027,-0.2625,-0.175,0.5425000000000001
1741711148.6119325,-0.939644,0.363865,0.16043,-0.27125,-0.27125,0.5425000000000001
1741711148.6149771,-0.939461,0.364597,0.15738,-0.20125,-0.4025,0.7875000000000001
1741711148.6209917,-0.940498,0.363011,0.156648,-0.42,-0.30625,0.7612500000000001
1741711148.6282923,-0.938485,0.364292,0.15799,-0.21875,-0.30625,0.7262500000000001
1741711148.631213,-0.933605,0.364353,0.157319,-0.41125,-0.14875,0.6562500000000001
1741711148.6360695,-0.93696,0.3642309999999999,0.152134,-0.245,-0.28,0.6562500000000001
1741711148.638886,-0.935618,0.363438,0.156526,-0.315,-0.32375,0.5425000000000001
1741711148.6436882,-0.933727,0.3666709999999999,0.157502,-0.02625,-0.44625,0.5775
1741711148.6471913,-0.936533,0.364353,0.158295,-0.23625,-0.28875,0.55125
1741711148.6510434,-0.936411,0.369843,0.155977,-0.48125,-0.2625,0.69125
1741711148.656829,-0.934154,0.366915,0.155611,-0.41125,-0.21,0.6300000000000001
1741711148.6617794,-0.937265,0.363011,0.156831,-0.25375,-0.27125,0.55125
1741711148.6673949,-0.935252,0.364902,0.153476,-0.28875,-0.20125,0.58625
1741711148.6721096,-0.936655,0.364353,0.157746,-0.1925,-0.42,0.60375
1741711148.6785722,-0.940925,0.364475,0.15677,-0.14875,-0.37625,0.6212500000000001
1741711148.6854472,-0.93513,0.36417,0.156099,-0.21,-0.2625,0.5162500000000001
1741711148.6885417,-0.937265,0.36417,0.158783,-0.11375,-0.49,0.42875
1741711148.691147,-0.93574,0.364353,0.155306,-0.20125,-0.20125,0.455
1741711148.6946504,-0.940193,0.367403,0.157136,-0.14,-0.3325,0.5950000000000001
1741711148.6970887,-0.940132,0.3589239999999999,0.15128,-0.07,-0.39375,0.46375
1741711148.69966,-0.941047,0.367159,0.157685,-0.21,-0.175,0.7000000000000001
1741711148.7021215,-0.937387,0.360876,0.157258,-0.2275,-0.3325,0.6825000000000001
1741711148.705522,-0.940437,0.365085,0.154696,-0.385,-0.42875,0.7262500000000001
1741711148.7100916,-0.934398,0.365817,0.15677,-0.48125,-0.18375,0.7087500000000001
1741711148.714629,-0.937265,0.361974,0.157563,-0.3325,-0.28875,0.58625
1741711148.718339,-0.939339,0.363255,0.15555,-0.04375,-0.20125,0.525
1741711148.7212944,-0.94184,0.365268,0.156343,-0.07,-0.23625,0.525
1741711148.7249002,-0.935191,0.3636209999999999,0.14152,0.0,-0.28,0.60375
1741711148.7285268,-0.937875,0.363865,0.155733,-0.28875,-0.30625,0.7087500000000001
1741711148.731813,-0.939644,0.3645359999999999,0.1535979999999999,-0.525,-0.30625,0.77
1741711148.7356954,-0.937082,0.366244,0.1551229999999999,-0.55125,-0.23625,0.5687500000000001
1741711148.7383373,-0.938851,0.365512,0.160186,-0.5425000000000001,-0.2625,0.5775
1741711148.743358,-0.937082,0.3648409999999999,0.15372,-0.18375,-0.315,0.44625
1741711148.7461624,-0.936289,0.363865,0.157319,-0.39375,-0.3675,0.49
1741711148.7488554,-0.938546,0.365817,0.1585389999999999,-0.11375,-0.2975,0.63875
1741711148.7513363,-0.94062,0.361486,0.152927,-0.11375,-0.4375,0.7350000000000001
1741711148.7538378,-0.94123,0.364048,0.155062,-0.175,-0.42,0.60375
1741711148.7567756,-0.941596,0.362035,0.142069,-0.23625,-0.27125,0.7612500000000001
1741711148.7597363,-0.938851,0.364902,0.156343,-0.48125,-0.23625,0.6212500000000001
1741711148.7625475,-0.935191,0.364475,0.155245,-0.4025,-0.1925,0.5075000000000001
1741711148.764912,-0.938912,0.36539,0.1406659999999999,-0.48125,-0.27125,0.665
1741711148.767172,-0.937326,0.361608,0.169031,-0.35875,-0.2625,0.5687500000000001
1741711148.7693243,-0.936899,0.366549,0.1606739999999999,-0.25375,-0.21,0.5775
1741711148.7716532,-0.934703,0.366793,0.16287,0.105,-0.4025,0.3675
1741711148.7746055,-0.93391,0.363316,0.160491,0.07875,-0.14,0.5162500000000001
1741711148.7769346,-0.942328,0.365878,0.1542079999999999,0.02625,-0.30625,0.6212500000000001
1741711148.7791753,-0.939339,0.363011,0.144692,-0.175,-0.2975,0.69125
1741711148.781682,-0.932629,0.367342,0.156465,-0.28,-0.23625,0.6212500000000001
1741711148.7842402,-0.941657,0.3636209999999999,0.155794,-0.4375,-0.35,0.77
1741711148.787006,-0.936045,0.366549,0.155916,-0.44625,-0.34125,0.6825000000000001
1741711148.789939,-0.931165,0.3642309999999999,0.155611,-0.41125,-0.32375,0.5775
1741711148.7924442,-0.940803,0.364597,0.156282,-0.42875,-0.28,0.6125
1741711148.794905,-0.94062,0.362584,0.1597589999999999,-0.30625,-0.3325,0.5162500000000001
1741711148.7973258,-0.936899,0.361974,0.155184,-0.21,-0.23625,0.4725
1741711148.799629,-0.923357,0.366488,0.160247,-0.27125,-0.30625,0.665
1741711148.8019087,-0.934642,0.365878,0.156709,-0.21875,-0.35,0.58625
1741711148.8049417,-0.94184,0.362279,0.154269,-0.20125,-0.32375,0.6300000000000001
1741711148.8078637,-0.944646,0.365085,0.155672,-0.14,-0.35875,0.7262500000000001
1741711148.8102393,-0.939705,0.364475,0.160735,-0.1575,-0.2975,0.55125
1741711148.8125477,-0.934825,0.362645,0.152317,-0.385,-0.2275,0.6212500000000001
1741711148.8149822,-0.938912,0.363011,0.154757,-0.4025,-0.2275,0.6300000000000001
1741711148.8175814,-0.939888,0.365695,0.156404,-0.6125,-0.3675,0.77875
1741711148.820487,-0.937509,0.365573,0.159576,-0.5075000000000001,-0.2975,0.6475000000000001
1741711148.8237164,-0.927749,0.362706,0.158722,-0.315,-0.21,0.4025
1741711148.8264532,-0.930738,0.363499,0.1591489999999999,-0.02625,-0.3325,0.4725
1741711148.8288877,-0.942023,0.365085,0.151036,-0.35875,-0.3325,0.56
1741711148.8312292,-0.94855,0.365695,0.152195,-0.5425000000000001,-0.2975,0.7087500000000001
1741711148.8335807,-0.937814,0.365268,0.156221,-0.49875,-0.20125,0.8925000000000001
1741711148.8359103,-0.931104,0.364597,0.164456,0.07875,-0.3325,0.5425000000000001
1741711148.838423,-0.931226,0.362401,0.15555,0.28875,-0.455,0.49
1741711148.8412838,-0.951844,0.3639259999999999,0.154147,0.1225,-0.49875,0.7175
1741711148.8437982,-0.937143,0.365939,0.15189,-0.39375,-0.35875,0.805
1741711148.8466785,-0.935496,0.364719,0.158722,-0.8487500000000001,-0.34125,0.93625
1741711148.8493152,-0.936472,0.364109,0.15189,-0.5337500000000001,-0.385,0.7000000000000001
1741711148.852034,-0.940132,0.36661,0.159271,-0.1925,-0.18375,0.41125
1741711148.8543286,-0.938546,0.3636209999999999,0.1600639999999999,-0.20125,0.0,0.37625
1741711148.857807,-0.934337,0.363987,0.1551229999999999,0.07875,-0.175,0.4025
1741711148.860199,-0.932751,0.362584,0.157868,0.23625,-0.105,0.4725
1741711148.8627503,-0.936594,0.362035,0.155184,0.0525,-0.245,0.63875
1741711148.864996,-0.944158,0.36417,0.155794,-0.30625,-0.42,0.7612500000000001
1741711148.8675244,-0.943487,0.3672809999999999,0.155428,-0.48125,-0.5075000000000001,0.7612500000000001
1741711148.8698206,-0.943426,0.365878,0.159027,-0.41125,-0.5687500000000001,0.77
1741711148.8725283,-0.942999,0.364658,0.155794,-0.42875,-0.32375,0.69125
1741711148.8750088,-0.933605,0.362706,0.15738,-0.42,-0.14875,0.5075000000000001
1741711148.877795,-0.935191,0.3645359999999999,0.157441,-0.42875,-0.00875,0.55125
1741711148.880499,-0.933361,0.364597,0.148413,-0.60375,0.035,0.4725
1741711148.883165,-0.934337,0.364475,0.158966,-0.60375,-0.09625,0.7175
1741711148.885429,-0.936228,0.361608,0.158295,-0.5775,-0.4025,0.6475000000000001
1741711148.8878107,-0.938546,0.362645,0.16348,-0.0875,-0.49,0.49875
1741711148.8908978,-0.937509,0.36417,0.163724,0.25375,-0.7262500000000001,0.58625
1741711148.893498,-0.940864,0.363072,0.160796,0.34125,-0.48125,0.46375
1741711148.8958218,-0.944829,0.3639259999999999,0.154879,0.00875,-0.2975,0.74375
1741711148.8981247,-0.932568,0.363682,0.152195,-0.5075000000000001,-0.09625,0.83125
1741711148.9004066,-0.937204,0.361669,0.153232,-0.97125,-0.175,0.945
1741711148.9027295,-0.93086,0.361608,0.15494,-0.7175,-0.14,0.7612500000000001
1741711148.9053507,-0.930006,0.3678909999999999,0.1409709999999999,-0.8750000000000001,-0.105,0.63875
1741711148.9083946,-0.9394,0.363133,0.155306,-0.21,-0.28875,0.56
1741711148.911034,-0.937875,0.36234,0.1539029999999999,0.07875,-0.5775,0.455
1741711148.914251,-0.93879,0.362767,0.1525,0.07875,-0.44625,0.44625
1741711148.9166467,-0.938729,0.363499,0.1535979999999999,0.04375,-0.48125,0.525
1741711148.918934,-0.939583,0.364963,0.1579289999999999,-0.16625,-0.3675,0.7875000000000001
1741711148.921695,-0.93879,0.36722,0.155489,-0.5687500000000001,-0.21875,0.77
1741711148.9262905,-0.935862,0.365695,0.156038,-0.42,-0.175,0.7612500000000001
1741711148.9287271,-0.932507,0.365024,0.159637,-0.48125,-0.105,0.6212500000000001
1741711148.9310606,-0.935496,0.3663659999999999,0.161345,-0.455,-0.28875,0.5425000000000001
1741711148.9334395,-0.932385,0.363682,0.158356,-0.245,-0.385,0.49875
1741711148.9358163,-0.929701,0.363865,0.157807,-0.23625,-0.1925,0.48125
1741711148.9381254,-0.9333,0.366488,0.155001,-0.14,-0.23625,0.55125
1741711148.9415762,-0.934947,0.366244,0.156587,0.07,-0.20125,0.42875
1741711148.9451318,-0.936838,0.36722,0.158966,0.04375,-0.23625,0.6475000000000001
1741711148.9481485,-0.940071,0.362218,0.157319,-0.13125,-0.23625,0.77
1741711148.950493,-0.936533,0.363133,0.156221,-0.48125,-0.32375,0.8137500000000001
1741711148.9526691,-0.93635,0.367037,0.159515,-0.5425000000000001,-0.35875,0.7000000000000001
1741711148.9548998,-0.937936,0.364597,0.155184,-0.5775,-0.42,0.7262500000000001
1741711148.9575572,-0.936289,0.360876,0.158966,-0.6475000000000001,-0.46375,0.8225000000000001
1741711148.9606426,-0.935435,0.365695,0.156587,-0.5337500000000001,-0.35,0.385
1741711148.9628792,-0.936106,0.362279,0.160857,-0.0875,-0.3675,0.4725
1741711148.9650867,-0.938851,0.367403,0.157441,0.0175,-0.21,0.42875
1741711148.9673083,-0.939827,0.363255,0.155306,0.14875,-0.32375,0.3675
1741711148.9695263,-0.939034,0.363011,0.157319,-0.1225,-0.245,0.46375
1741711148.9721274,-0.9394,0.365329,0.156648,-0.06125,-0.23625,0.6300000000000001
1741711148.9748511,-0.937875,0.36661,0.15311,-0.16625,-0.315,0.7262500000000001
1741711148.9772682,-0.934703,0.363743,0.158356,-0.49,-0.35875,0.7350000000000001
1741711148.980312,-0.92537,0.3660609999999999,0.1586,-0.5950000000000001,-0.39375,0.6475000000000001
1741711148.9827054,-0.950319,0.363438,0.164639,-0.455,-0.39375,0.56
1741711148.9849582,-0.93879,0.365878,0.1586,-0.455,-0.4025,0.5950000000000001
1741711148.987298,-0.937875,0.367525,0.1612839999999999,-0.21875,-0.21,0.5775
1741711148.9903777,-0.936289,0.364353,0.153476,0.00875,-0.175,0.55125
1741711148.9936218,-0.93635,0.36295,0.158905,-0.1225,-0.385,0.55125
1741711148.996075,-0.94367,0.362523,0.159515,-0.00875,-0.3675,0.5425000000000001
1741711148.998468,-0.936777,0.361913,0.152805,-0.2625,-0.30625,0.58625
1741711149.000826,-0.931165,0.363377,0.164273,-0.21,-0.28,0.6562500000000001
1741711149.0031962,-0.938912,0.363865,0.154574,-0.30625,-0.20125,0.6212500000000001
1741711149.0104375,-0.937204,0.3663659999999999,0.157319,-0.35,-0.14875,0.69125
1741711149.0134318,-0.936167,0.363499,0.155977,-0.2275,-0.14875,0.6212500000000001
1741711149.015694,-0.937692,0.364048,0.158295,-0.1575,-0.28,0.49875
1741711149.018473,-0.937021,0.3654509999999999,0.156953,-0.02625,-0.4025,0.49875
1741711149.021132,-0.939888,0.361059,0.155428,-0.1225,-0.385,0.6125
1741711149.0240517,-0.937387,0.365268,0.152622,-0.1925,-0.30625,0.6475000000000001
1741711149.0265472,-0.938119,0.363194,0.155001,-0.28,-0.25375,0.7000000000000001
1741711149.0289278,-0.939766,0.3636209999999999,0.156099,-0.49875,-0.35875,0.805
1741711149.03137,-0.938241,0.3645359999999999,0.154757,-0.3675,-0.25375,0.6562500000000001
1741711149.0338836,-0.940254,0.363438,0.154635,-0.5950000000000001,-0.245,0.6125
1741711149.0361707,-0.93879,0.363194,0.157197,-0.2625,-0.34125,0.665
1741711149.0407395,-0.935923,0.363438,0.15799,-0.11375,-0.2975,0.525
1741711149.046206,-0.937265,0.3645359999999999,0.15616,-0.175,-0.2975,0.5075000000000001
1741711149.048633,-0.939949,0.36356,0.150914,-0.035,-0.27125,0.63875
1741711149.0511503,-0.93757,0.363438,0.15738,-0.18375,-0.21875,0.55125
1741711149.0534973,-0.941047,0.362157,0.150853,-0.25375,-0.25375,0.49
1741711149.055971,-0.934459,0.366427,0.160857,-0.21875,-0.315,0.7525000000000001
1741711149.0587063,-0.934703,0.3675859999999999,0.155794,-0.455,-0.32375,0.7350000000000001
1741711149.061735,-0.937448,0.36478,0.156709,-0.6212500000000001,-0.25375,0.5950000000000001
1741711149.064176,-0.935374,0.364719,0.159027,-0.455,-0.35875,0.6212500000000001
1741711149.0665522,-0.939705,0.3636209999999999,0.156648,-0.41125,-0.35875,0.58625
1741711149.0692558,-0.938729,0.3639259999999999,0.157502,-0.30625,-0.315,0.60375
1741711149.0735648,-0.938363,0.366305,0.158356,-0.1925,-0.25375,0.5950000000000001
1741711149.077204,-0.934764,0.366183,0.156953,-0.30625,-0.25375,0.665
1741711149.0798345,-0.934154,0.362706,0.1708609999999999,-0.39375,-0.23625,0.7875000000000001
1741711149.0822885,-0.933178,0.3657559999999999,0.1609789999999999,-0.35,-0.245,0.6475000000000001
1741711149.0846064,-0.940376,0.367098,0.155672,-0.175,-0.30625,0.665
1741711149.0868752,-0.936106,0.36417,0.170739,-0.21875,-0.28875,0.49
1741711149.0893347,-0.941291,0.365634,0.155977,-0.18375,-0.3325,0.665
1741711149.0926569,-0.940315,0.365207,0.156709,-0.3325,-0.35875,0.5162500000000001
1741711149.0949936,-0.937509,0.362157,0.156709,-0.3675,-0.49875,0.6562500000000001
1741711149.0973482,-0.941596,0.364414,0.156343,-0.37625,-0.35,0.5775
1741711149.0997393,-0.939827,0.365634,0.1548179999999999,-0.25375,-0.3675,0.5425000000000001
1741711149.1020772,-0.940315,0.365329,0.155184,-0.315,-0.32375,0.49875
1741711149.1050315,-0.938851,0.364048,0.156953,-0.175,-0.2975,0.48125
1741711149.108276,-0.936289,0.363255,0.15555,-0.13125,-0.21875,0.5775
1741711149.1116512,-0.935252,0.3669759999999999,0.157319,-0.30625,-0.14875,0.58625
1741711149.1140962,-0.937814,0.3666709999999999,0.157258,-0.18375,-0.32375,0.5687500000000001
1741711149.1167543,-0.937814,0.364109,0.159393,-0.2625,-0.23625,0.5337500000000001
1741711149.1190608,-0.936289,0.365085,0.157868,-0.1575,-0.28875,0.665
1741711149.121483,-0.938973,0.361303,0.15555,-0.06125,-0.245,0.4025
1741711149.1242704,-0.934154,0.3642309999999999,0.155184,-0.06125,-0.23625,0.5075000000000001
1741711149.1284444,-0.937448,0.3651459999999999,0.1535979999999999,-0.4725,-0.2975,0.6475000000000001
1741711149.1307497,-0.936411,0.361364,0.152134,-0.35,-0.3325,0.6212500000000001
1741711149.1332912,-0.934825,0.3642309999999999,0.144997,-0.28875,-0.42875,0.6562500000000001
1741711149.136021,-0.940925,0.363194,0.155245,-0.2975,-0.46375,0.6300000000000001
1741711149.1386883,-0.937753,0.363316,0.162687,-0.34125,-0.245,0.6125
1741711149.1415386,-0.939156,0.364048,0.157319,-0.25375,-0.30625,0.6562500000000001
1741711149.1439784,-0.933605,0.368135,0.159881,-0.28875,-0.35875,0.5775
1741711149.146462,-0.933971,0.363072,0.158295,-0.46375,-0.37625,0.6212500000000001
1741711149.1488936,-0.936472,0.361303,0.156038,-0.25375,-0.20125,0.63875
1741711149.151156,-0.939034,0.364048,0.157563,-0.2975,-0.2975,0.665
1741711149.1534705,-0.935984,0.366915,0.161711,-0.14875,-0.07,0.6737500000000001
1741711149.1576924,-0.93574,0.363377,0.156831,-0.06125,-0.245,0.6737500000000001
1741711149.1605554,-0.941596,0.366122,0.168543,-0.1575,-0.37625,0.63875
1741711149.1630564,-0.93635,0.366915,0.156404,-0.3325,-0.28,0.56
1741711149.1656315,-0.931775,0.365085,0.157319,-0.20125,-0.27125,0.48125
1741711149.1681988,-0.935801,0.366793,0.157624,-0.315,-0.2975,0.805
1741711149.1720743,-0.939888,0.365634,0.1591489999999999,-0.28875,-0.35875,0.5425000000000001
1741711149.176314,-0.932446,0.366,0.160491,-0.175,-0.34125,0.48125
1741711149.1786342,-0.936899,0.36722,0.157807,-0.04375,-0.30625,0.48125
1741711149.1812007,-0.936655,0.365878,0.156404,-0.02625,-0.42875,0.5337500000000001
1741711149.183755,-0.937875,0.365085,0.156953,-0.13125,-0.34125,0.6212500000000001
1741711149.1863115,-0.935862,0.365085,0.1582339999999999,-0.2975,-0.35875,0.63875
1741711149.1889114,-0.935496,0.3660609999999999,0.158966,-0.42875,-0.385,0.6125
1741711149.192003,-0.936228,0.364109,0.155001,-0.4025,-0.245,0.5337500000000001
1741711149.194389,-0.937204,0.366488,0.1585389999999999,-0.42,-0.18375,0.5775
1741711149.197175,-0.936228,0.365085,0.159271,-0.35,-0.04375,0.5337500000000001
1741711149.1997485,-0.937082,0.362523,0.158661,-0.175,-0.28875,0.4725
1741711149.202904,-0.93696,0.360388,0.155306,-0.105,-0.2275,0.5425000000000001
1741711149.205208,-0.937631,0.362828,0.158173,-0.1225,-0.35875,0.4025
1741711149.2085369,-0.936838,0.362706,0.160735,-0.04375,-0.2975,0.5337500000000001
1741711149.2110412,-0.937509,0.361669,0.158417,-0.23625,-0.4725,0.6125
1741711149.2134836,-0.938119,0.361547,0.159515,-0.105,-0.27125,0.5950000000000001
1741711149.2158682,-0.936838,0.36173,0.157563,-0.455,-0.315,0.5425000000000001
1741711149.2182348,-0.941169,0.363255,0.155428,-0.42,-0.27125,0.7262500000000001
1741711149.2207632,-0.940864,0.359412,0.154452,-0.6475000000000001,-0.21,0.7175
1741711149.2236586,-0.937936,0.362645,0.168848,-0.5425000000000001,-0.1575,0.5425000000000001
1741711149.2262106,-0.934581,0.363316,0.156404,-0.4725,-0.175,0.58625
1741711149.229072,-0.935435,0.3648409999999999,0.158417,-0.175,-0.21875,0.6125
1741711149.2317052,-0.940925,0.3636209999999999,0.155855,0.04375,-0.21,0.5162500000000001
1741711149.2342238,-0.935679,0.362279,0.143594,0.00875,-0.37625,0.6475000000000001
1741711149.236522,-0.946842,0.361242,0.1526829999999999,-0.035,-0.2625,0.6125
1741711149.2389486,-0.940498,0.364475,0.161955,-0.27125,-0.2975,0.74375
1741711149.2420986,-0.938363,0.363072,0.155245,-0.39375,-0.3325,0.8400000000000001
1741711149.2445805,-0.933727,0.36356,0.158478,-0.42,-0.2975,0.83125
1741711149.2469575,-0.937204,0.3648409999999999,0.158051,-0.5425000000000001,-0.245,0.7175
1741711149.249287,-0.937265,0.364048,0.1588439999999999,-0.41125,-0.3325,0.5775
1741711149.2516415,-0.943975,0.361181,0.153781,-0.28,-0.175,0.6212500000000001
1741711149.2539775,-0.9333,0.364353,0.159576,-0.32375,-0.175,0.60375
1741711149.2566926,-0.936838,0.363011,0.150731,-0.0525,-0.2275,0.69125
1741711149.2608688,-0.937509,0.365878,0.155916,-0.0875,-0.27125,0.69125
1741711149.2632153,-0.941291,0.36478,0.15494,-0.20125,-0.2275,0.6825000000000001
1741711149.2658904,-0.939278,0.369172,0.157624,-0.18375,-0.27125,0.77875
1741711149.2692304,-0.934825,0.365512,0.155916,-0.385,-0.28875,0.7087500000000001
1741711149.2718124,-0.931958,0.3669759999999999,0.161955,-0.34125,-0.21,0.805
1741711149.2747805,-0.932263,0.3660609999999999,0.155367,-0.42,-0.35875,0.805
1741711149.2772765,-0.936472,0.371612,0.15555,-0.32375,-0.2625,0.60375
1741711149.2797394,-0.9394,0.3694159999999999,0.156831,-0.3325,-0.42,0.58625
1741711149.2820623,-0.948001,0.366244,0.1582339999999999,-0.2275,-0.44625,0.4375
1741711149.2843845,-0.939095,0.367708,0.157624,-0.2625,-0.37625,0.60375
1741711149.2867005,-0.938119,0.3660609999999999,0.159088,-0.0875,-0.35875,0.7262500000000001
1741711149.289749,-0.940193,0.3654509999999999,0.15433,-0.1225,-0.42875,0.69125
1741711149.294092,-0.936838,0.366732,0.157197,-0.28875,-0.39375,0.665
1741711149.2976563,-0.93757,0.3666709999999999,0.159271,-0.55125,-0.30625,0.69125
1741711149.299969,-0.937204,0.364963,0.156587,-0.4375,-0.28,0.525
1741711149.3026953,-0.93269,0.367342,0.156221,-0.49875,-0.21875,0.6562500000000001
1741711149.3053555,-0.933727,0.365939,0.162992,-0.18375,-0.2975,0.48125
1741711149.308016,-0.943182,0.36783,0.1609789999999999,-0.18375,-0.1575,0.5162500000000001
1741711149.3105402,-0.933849,0.369294,0.1586,-0.1225,-0.23625,0.46375
1741711149.3130252,-0.92476,0.364475,0.15372,-0.06125,-0.21875,0.4375
1741711149.3154163,-0.935679,0.365024,0.160735,-0.06125,-0.315,0.55125
1741711149.3177552,-0.951356,0.366549,0.1579289999999999,-0.0525,-0.28875,0.5775
1741711149.320044,-0.933605,0.3642309999999999,0.154757,-0.21875,-0.28875,0.63875
1741711149.3246765,-0.936411,0.3681959999999999,0.158173,-0.25375,-0.30625,0.5775
1741711149.3274288,-0.937997,0.361608,0.155916,-0.315,-0.175,0.6125
1741711149.32999,-0.938363,0.365817,0.157624,-0.28,-0.245,0.49
1741711149.332898,-0.938302,0.363682,0.1674449999999999,-0.32375,-0.2625,0.5075000000000001
1741711149.3355844,-0.932751,0.3642309999999999,0.14213,-0.20125,-0.20125,0.4725
1741711149.3382883,-0.93818,0.363255,0.156709,-0.1575,-0.32375,0.6300000000000001
1741711149.3413792,-0.936289,0.365573,0.158783,-0.14875,-0.23625,0.6212500000000001
1741711149.3440368,-0.938241,0.362645,0.155001,-0.35875,-0.28875,0.5950000000000001
1741711149.346599,-0.941474,0.3672809999999999,0.155733,-0.25375,-0.27125,0.6562500000000001
1741711149.3489933,-0.941047,0.365207,0.152927,-0.44625,-0.32375,0.7175
1741711149.351357,-0.943792,0.368257,0.1529879999999999,-0.5162500000000001,-0.25375,0.5775
1741711149.3536885,-0.93696,0.363377,0.15555,-0.385,-0.39375,0.5162500000000001
1741711149.35769,-0.934886,0.361791,0.1551229999999999,-0.2975,-0.2975,0.6475000000000001
1741711149.362965,-0.931592,0.358131,0.156709,-0.35,-0.35875,0.6212500000000001
1741711149.365259,-0.938973,0.362828,0.1525,-0.25375,-0.42,0.7000000000000001
1741711149.3679163,-0.93696,0.363133,0.160735,-0.21875,-0.34125,0.6825000000000001
1741711149.370185,-0.938973,0.363438,0.150853,-0.385,-0.39375,0.7000000000000001
1741711149.373129,-0.936594,0.363438,0.156465,-0.2625,-0.32375,0.7000000000000001
1741711149.3759282,-0.935008,0.365512,0.156892,-0.35,-0.175,0.6125
1741711149.3785574,-0.937082,0.36783,0.157502,-0.3325,-0.23625,0.6125
1741711149.3811567,-0.938241,0.362645,0.15006,-0.28875,-0.175,0.5950000000000001
1741711149.3836467,-0.936594,0.367342,0.161406,-0.35,-0.2275,0.5425000000000001
1741711149.386017,-0.93696,0.366244,0.162748,-0.18375,-0.315,0.5425000000000001
1741711149.389506,-0.934764,0.363377,0.16226,-0.14875,-0.1925,0.46375
1741711149.392277,-0.942023,0.363743,0.15677,0.0175,-0.21,0.5425000000000001
1741711149.39826,-0.943121,0.360693,0.1535979999999999,-0.18375,-0.315,0.69125
1741711149.4009297,-0.922625,0.367525,0.160613,-0.35,-0.16625,0.665
1741711149.4035368,-0.93635,0.3660609999999999,0.160125,-0.385,-0.35875,0.6300000000000001
1741711149.4063911,-0.933788,0.363865,0.1532929999999999,-0.3675,-0.21875,0.5775
1741711149.409389,-0.952393,0.365817,0.1594539999999999,-0.27125,-0.32375,0.665
1741711149.4124763,-0.941474,0.364902,0.141764,-0.30625,-0.28875,0.6475000000000001
1741711149.4151075,-0.935252,0.3660609999999999,0.156465,-0.20125,-0.14,0.6125
1741711149.4176817,-0.93452,0.3691109999999999,0.156404,-0.18375,-0.18375,0.6300000000000001
1741711149.4202046,-0.936045,0.367037,0.159393,-0.14,-0.27125,0.49875
1741711149.4237463,-0.937631,0.363316,0.1586,-0.385,-0.3675,0.5425000000000001
1741711149.4299934,-0.938912,0.365329,0.156587,-0.35,-0.3325,0.5425000000000001
1741711149.4328265,-0.941047,0.366,0.157075,-0.32375,-0.2625,0.5775
1741711149.4353836,-0.937936,0.364353,0.158661,-0.30625,-0.27125,0.525
1741711149.4378912,-0.936716,0.362462,0.154452,-0.1925,-0.35875,0.5775
1741711149.4411223,-0.937021,0.362645,0.157685,-0.0875,-0.23625,0.5075000000000001
1741711149.444529,-0.936533,0.364048,0.159637,0.0175,-0.16625,0.49
1741711149.4470415,-0.939888,0.3660609999999999,0.156892,-0.30625,-0.4025,0.525
1741711149.4495432,-0.933971,0.362767,0.155306,-0.30625,-0.385,0.5775
1741711149.452005,-0.939461,0.363133,0.156587,-0.37625,-0.245,0.6825000000000001
1741711149.4547737,-0.938241,0.36478,0.1542079999999999,-0.49,-0.385,0.6212500000000001
1741711149.4597676,-0.936045,0.362401,0.15799,-0.2275,-0.27125,0.6212500000000001
1741711149.462353,-0.936716,0.363682,0.158783,-0.245,-0.1575,0.4375
1741711149.464639,-0.937875,0.36661,0.1606739999999999,-0.105,-0.2275,0.5337500000000001
1741711149.4668727,-0.942511,0.362096,0.150975,-0.20125,-0.30625,0.55125
1741711149.4690037,-0.935374,0.362645,0.156282,2.1175,-0.44625,0.56
1741711149.4712,-0.939156,0.362157,0.151951,-0.1925,-0.32375,0.4725
1741711149.4737902,-0.94184,0.363865,0.155184,-0.14875,-0.35875,0.58625
1741711149.4772992,-0.940254,0.365329,0.157807,-0.2625,-0.1925,0.6300000000000001
1741711149.4797027,-0.933178,0.362035,0.159271,-0.44625,-0.42875,0.6562500000000001
1741711149.4821076,-0.930555,0.364353,0.155794,-0.44625,-0.16625,0.77
1741711149.4846554,-0.936899,0.36112,0.15067,-0.4025,-0.2275,0.5775
1741711149.4877846,-0.933605,0.363743,0.157319,-0.42,-0.18375,0.5425000000000001
1741711149.4907634,-0.938912,0.364048,0.155611,-0.44625,-0.2975,0.55125
1741711149.4938717,-0.938729,0.36173,0.156343,-0.105,-0.35,0.5162500000000001
1741711149.496289,-0.938912,0.3642309999999999,0.1542079999999999,-0.09625,-0.35875,0.58625
1741711149.4987504,-0.937509,0.363438,0.155306,-0.20125,-0.28875,0.5775
1741711149.501126,-0.939034,0.363316,0.153537,-0.245,-0.21,0.665
1741711149.5034332,-0.940437,0.364597,0.153354,-0.27125,-0.245,0.6475000000000001
1741711149.5057712,-0.932568,0.3648409999999999,0.161162,-0.42,-0.27125,0.6475000000000001
1741711149.5095084,-0.93391,0.362584,0.159332,-0.3675,-0.32375,0.6562500000000001
1741711149.5118644,-0.940193,0.36356,0.153354,-0.28875,-0.245,0.6825000000000001
1741711149.5141697,-0.937753,0.362889,0.1585389999999999,-0.28875,-0.315,0.5950000000000001
1741711149.516518,-0.940315,0.3651459999999999,0.157807,-0.245,-0.30625,0.6475000000000001
1741711149.5201683,-0.938302,0.364353,0.157197,-0.09625,-0.42875,0.385
1741711149.522622,-0.938424,0.365268,0.153049,-0.13125,-0.5075000000000001,0.5075000000000001
1741711149.5258088,-0.950258,0.363072,0.155794,-0.25375,-0.2975,0.6212500000000001
1741711149.5283718,-0.941413,0.366793,0.153964,-0.315,-0.1925,0.6475000000000001
1741711149.5309155,-0.935069,0.365512,0.156953,-0.58625,-0.23625,0.7350000000000001
1741711149.5333087,-0.93086,0.36478,0.160491,-0.2975,-0.2625,0.7000000000000001
1741711149.5356245,-0.935984,0.3660609999999999,0.157868,-0.28875,-0.315,0.6475000000000001
1741711149.537851,-0.934703,0.365817,0.15738,-0.35,-0.175,0.6825000000000001
1741711149.5405955,-0.941108,0.3657559999999999,0.156526,-0.4375,-0.16625,0.6475000000000001
1741711149.5440798,-0.93574,0.365878,0.15738,-0.27125,-0.21875,0.6125
1741711149.5464056,-0.939949,0.364902,0.154269,-0.14875,-0.27125,0.5425000000000001
1741711149.5493798,-0.939217,0.363804,0.1588439999999999,-0.0875,-0.2975,0.6562500000000001
1741711149.5535982,-0.938912,0.3642309999999999,0.155611,-0.32375,-0.28875,0.60375
1741711149.5562816,-0.942938,0.365207,0.152256,-0.385,-0.2625,0.60375
1741711149.5591316,-0.937753,0.3660609999999999,0.158356,-0.58625,-0.30625,0.60375
1741711149.561632,-0.941169,0.365695,0.155489,-0.55125,-0.34125,0.56
1741711149.5640666,-0.937509,0.365512,0.157563,-0.4025,-0.30625,0.5425000000000001
1741711149.566389,-0.935252,0.364902,0.158722,-0.28875,-0.315,0.48125
1741711149.5686116,-0.933971,0.366,0.165737,-0.2975,-0.28875,0.6125
1741711149.5708263,-0.924394,0.365329,0.159515,-0.21875,-0.37625,0.6300000000000001
1741711149.573743,-0.940681,0.364353,0.152012,-0.16625,-0.34125,0.60375
1741711149.5770104,-0.937753,0.363682,0.1591489999999999,-0.0875,-0.35875,0.69125
1741711149.579515,-0.939034,0.366915,0.1545129999999999,-0.34125,-0.23625,0.7262500000000001
1741711149.5821185,-0.935801,0.365634,0.163541,-0.39375,-0.21875,0.6125
1741711149.5849876,-0.936716,0.365268,0.161955,-0.35,-0.35875,0.6562500000000001
1741711149.5882792,-0.938119,0.365268,0.159515,-0.44625,-0.11375,0.6475000000000001
1741711149.591197,-0.938851,0.36295,0.155794,-0.39375,-0.11375,0.5687500000000001
1741711149.5935073,-0.936777,0.365634,0.157563,-0.27125,-0.105,0.55125
1741711149.59691,-0.936777,0.36783,0.156526,-0.1225,-0.175,0.5425000000000001
1741711149.5992205,-0.93513,0.3663659999999999,0.155794,-0.09625,-0.25375,0.49
1741711149.601495,-0.936655,0.365085,0.157197,0.035,-0.20125,0.6212500000000001
1741711149.6037197,-0.934032,0.367037,0.156404,-0.25375,-0.34125,0.63875
1741711149.606217,-0.940437,0.364658,0.152195,-0.315,-0.37625,0.7000000000000001
1741711149.6090145,-0.952515,0.367159,0.157563,-0.4375,-0.4025,0.77
1741711149.6133378,-0.938973,0.363987,0.157868,-0.41125,-0.46375,0.60375
1741711149.616154,-0.939827,0.364719,0.1532929999999999,-0.49,-0.315,0.55125
1741711149.6191137,-0.93391,0.362157,0.160186,-0.4725,-0.2625,0.6737500000000001
1741711149.6216395,-0.940742,0.365634,0.168482,-0.35,-0.37625,0.58625
1741711149.6245885,-0.935496,0.365695,0.160125,-0.25375,-0.4375,0.58625
1741711149.6281712,-0.938973,0.3654509999999999,0.1548179999999999,-0.2625,-0.39375,0.60375
1741711149.6307678,-0.940376,0.361791,0.15372,-0.245,-0.23625,0.69125
1741711149.633402,-0.939766,0.36783,0.158295,-0.16625,-0.35,0.6300000000000001
1741711149.6357012,-0.941169,0.362523,0.154391,-0.5162500000000001,-0.3675,0.7612500000000001
1741711149.6380043,-0.936533,0.367525,0.156831,-0.49,-0.245,0.7087500000000001
1741711149.6404264,-0.934947,0.361974,0.161101,-0.3325,-0.2625,0.6562500000000001
1741711149.6430342,-0.941291,0.365085,0.170434,-0.34125,-0.34125,0.56
1741711149.6453135,-0.939705,0.365817,0.160003,-0.1925,-0.3675,0.5337500000000001
1741711149.6478777,-0.94001,0.3651459999999999,0.159698,-0.09625,-0.27125,0.525
1741711149.6505442,-0.938607,0.365817,0.156953,-0.20125,-0.34125,0.5775
1741711149.653233,-0.939461,0.365817,0.157014,-0.1575,-0.35,0.6825000000000001
1741711149.6555424,-0.938851,0.364658,0.1542079999999999,-0.18375,-0.2625,0.60375
1741711149.658278,-0.939888,0.365024,0.153354,-0.34125,-0.28,0.665
1741711149.6605911,-0.940071,0.366244,0.156465,-0.3675,-0.28875,0.58625
1741711149.6628957,-0.939583,0.36234,0.152439,-0.4375,-0.28,0.6562500000000001
1741711149.6651957,-0.940071,0.3660609999999999,0.157746,-0.37625,-0.23625,0.5425000000000001
1741711149.667402,-0.939217,0.362462,0.152866,-0.32375,-0.21,0.5950000000000001
1741711149.669592,-0.927993,0.3657559999999999,0.156404,-0.35875,-0.25375,0.4725
1741711149.6719232,-0.936045,0.366244,0.152317,-0.28,-0.32375,0.5162500000000001
1741711149.675017,-0.937387,0.362157,0.153842,-0.0875,-0.28875,0.6125
1741711149.6776228,-0.932812,0.362035,0.154269,-0.0875,-0.16625,0.5075000000000001
1741711149.6801655,-0.939217,0.362401,0.155184,-0.11375,-0.27125,0.55125
1741711149.6828892,-0.940254,0.362889,0.156404,-0.14875,-0.41125,0.7087500000000001
1741711149.6852398,-0.934642,0.362767,0.15677,-0.315,-0.28875,0.58625
1741711149.6874928,-0.940132,0.363377,0.156465,-0.2625,-0.175,0.63875
1741711149.6898131,-0.935496,0.361974,0.158295,-0.39375,-0.20125,0.5687500000000001
1741711149.6922567,-0.937692,0.364414,0.155794,-0.44625,-0.30625,0.58625
1741711149.695465,-0.936655,0.365878,0.15799,-0.39375,-0.34125,0.7175
1741711149.6978352,-0.935862,0.364963,0.160308,-0.30625,-0.4025,0.5337500000000001
1741711149.7002988,-0.936228,0.367403,0.158295,-0.0525,-0.2625,0.6125
1741711149.7027996,-0.941535,0.362218,0.156343,-0.1225,-0.32375,0.5337500000000001
1741711149.705263,-0.934703,0.363499,0.159393,-0.13125,-0.2975,0.5162500000000001
1741711149.7079985,-0.941047,0.363682,0.153476,-0.175,-0.2625,0.6125
1741711149.7106502,-0.939522,0.3660609999999999,0.155611,-0.35875,-0.18375,0.6825000000000001
1741711149.7133832,-0.935069,0.363316,0.14213,-0.42,-0.20125,0.7175
1741711149.7157984,-0.940681,0.361791,0.154147,-0.35875,-0.27125,0.6300000000000001
1741711149.718083,-0.939888,0.369599,0.157014,-0.3325,-0.20125,0.55125
1741711149.7202334,-0.938058,0.365878,0.160125,-0.21875,-0.175,0.5075000000000001
1741711149.7224529,-0.937021,0.364353,0.157014,-0.1575,-0.46375,0.35875
1741711149.725477,-0.937387,0.367647,0.145912,-0.1575,-0.3325,0.5687500000000001
1741711149.7283108,-0.935313,0.364109,0.152744,-0.18375,-0.35875,0.5775
1741711149.730577,-0.935496,0.363194,0.161528,-0.18375,-0.46375,0.60375
1741711149.732787,-0.937021,0.364963,0.154879,-0.315,-0.35875,0.60375
1741711149.7350204,-0.935496,0.365207,0.158783,-0.455,-0.35,0.7612500000000001
1741711149.737234,-0.942206,0.363316,0.156038,-0.4025,-0.2625,0.8487500000000001
1741711149.73956,-0.936167,0.364048,0.158661,-0.42,-0.28875,0.6562500000000001
1741711149.7423975,-0.936289,0.363438,0.15555,-0.315,-0.1575,0.58625
1741711149.7450745,-0.935069,0.363438,0.154269,-0.30625,-0.1925,0.6825000000000001
1741711149.7477531,-0.936472,0.3639259999999999,0.154025,-0.21,-0.245,0.56
1741711149.750242,-0.942938,0.362523,0.157014,-0.06125,-0.2975,0.6125
1741711149.7525835,-0.935923,0.365024,0.157014,-0.1925,-0.315,0.7000000000000001
1741711149.7548563,-0.939278,0.364292,0.162443,-0.00875,-0.32375,0.6212500000000001
1741711149.7572432,-0.935374,0.365085,0.158478,0.0175,-0.2975,0.525
1741711149.7608771,-0.939156,0.363682,0.155855,-0.245,-0.35875,0.5687500000000001
1741711149.7633247,-0.934825,0.363072,0.156526,-0.44625,-0.245,0.7612500000000001
1741711149.7656193,-0.935435,0.367647,0.1539029999999999,-0.74375,-0.1575,0.6737500000000001
1741711149.767906,-0.936289,0.361425,0.155733,-0.60375,-0.20125,0.58625
1741711149.7701771,-0.936045,0.366183,0.156465,-0.385,-0.21875,0.525
1741711149.772534,-0.93818,0.363438,0.1612839999999999,-0.21,-0.35875,0.4375
1741711149.7758985,-0.939888,0.362035,0.157075,-0.035,-0.35,0.5950000000000001
1741711149.7783775,-0.940864,0.364109,0.155062,-0.07875,-0.39375,0.6475000000000001
1741711149.7810457,-0.939888,0.367037,0.171288,-0.1575,-0.34125,0.6125
1741711149.7834206,-0.940437,0.3642309999999999,0.158417,-0.28,-0.34125,0.7000000000000001
1741711149.7857106,-0.94123,0.365634,0.157685,-0.49,-0.2975,0.7262500000000001
1741711149.787834,-0.939949,0.362828,0.157746,-0.6125,-0.385,0.945
1741711149.7900913,-0.939156,0.365634,0.1542079999999999,-0.48125,-0.25375,0.7087500000000001
1741711149.7931356,-0.935252,0.36478,0.163907,-0.5687500000000001,-0.16625,0.6125
1741711149.7956855,-0.931836,0.362828,0.156709,-0.35,-0.11375,0.5775
1741711149.7981818,-0.931592,0.361913,0.156404,-0.2625,-0.175,0.5075000000000001
1741711149.800637,-0.936533,0.366122,0.1600639999999999,-0.20125,-0.30625,0.44625
1741711149.8031054,-0.939583,0.363133,0.15677,-0.1225,-0.42875,0.69125
1741711149.8056197,-0.942938,0.367098,0.1548179999999999,-0.09625,-0.41125,0.49875
1741711149.808919,-0.939766,0.365573,0.158417,-0.1225,-0.30625,0.6125
1741711149.8115177,-0.936411,0.365817,0.1539029999999999,-0.245,-0.3675,0.7875000000000001
1741711149.814213,-0.936838,0.365573,0.160552,-0.42,-0.2975,0.7350000000000001
1741711149.816676,-0.933422,0.365573,0.155977,-0.58625,-0.21,0.63875
1741711149.819039,-0.93635,0.364414,0.155306,-0.6825000000000001,-0.2275,0.6300000000000001
1741711149.8212905,-0.9394,0.3651459999999999,0.156343,-0.69125,-0.14,0.665
1741711149.8236866,-0.933361,0.364109,0.1551229999999999,-0.28875,-0.175,0.5425000000000001
1741711149.8273203,-0.93818,0.366,0.1579289999999999,0.1225,-0.39375,0.2975
1741711149.8296509,-0.939278,0.362218,0.1406659999999999,0.175,-0.28875,0.49
1741711149.832219,-0.940803,0.362279,0.151829,0.27125,-0.4025,0.5337500000000001
1741711149.834494,-0.937692,0.363499,0.1532929999999999,0.0,-0.35875,0.665
1741711149.837037,-0.940376,0.3660609999999999,0.1586,-0.175,-0.1925,0.8575
1741711149.8397143,-0.935069,0.36661,0.1535979999999999,-0.39375,-0.3675,0.805
1741711149.8435578,-0.937753,0.364963,0.157502,-0.5425000000000001,-0.2275,0.7000000000000001
1741711149.846321,-0.938607,0.3648409999999999,0.157258,-0.49,-0.35875,0.48125
1741711149.8487043,-0.939156,0.36539,0.1603689999999999,-0.4375,-0.27125,0.4725
1741711149.851209,-0.936167,0.366854,0.161162,-0.1925,-0.37625,0.55125
1741711149.8535588,-0.939888,0.362279,0.158661,-0.0175,-0.44625,0.48125
1741711149.855931,-0.93147,0.361913,0.156282,0.245,-0.23625,0.42875
1741711149.8590417,-0.944219,0.36661,0.157075,-0.1925,-0.2975,0.69125
1741711149.861801,-0.942633,0.367952,0.162748,-0.5162500000000001,-0.39375,0.7262500000000001
1741711149.8641694,-0.938851,0.366183,0.161406,-0.35875,-0.32375,0.8750000000000001
1741711149.8665235,-0.929945,0.36539,0.155245,-0.21875,0.02625,0.69125
1741711149.8688383,-0.938058,0.363865,0.158783,0.06125,-0.2625,0.3675
1741711149.871234,-0.936899,0.3639259999999999,0.146156,-0.34125,-0.385,0.4725
1741711149.8742378,-0.936655,0.36661,0.157136,-0.60375,-0.14,0.69125
1741711149.8770475,-0.936899,0.365817,0.155184,-0.42,-0.3325,0.6475000000000001
1741711149.8794353,-0.934581,0.362767,0.161406,-0.00875,-0.44625,0.5950000000000001
1741711149.8817766,-0.934642,0.361791,0.158173,0.4025,-0.385,0.46375
1741711149.8840115,-0.927261,0.359961,0.157441,0.0525,-0.11375,0.55125
1741711149.886193,-0.936533,0.360693,0.14579,-0.2275,-0.09625,0.5162500000000001
1741711149.8882997,-0.947452,0.366549,0.1486569999999999,-0.6825000000000001,-0.09625,0.69125
1741711149.890735,-0.94428,0.367525,0.154696,-1.2425000000000002,-0.13125,0.88375
1741711149.8943489,-0.95282,0.366183,0.156282,-0.6737500000000001,-0.25375,0.77875
1741711149.8966527,-0.936533,0.368257,0.164822,0.385,-0.315,0.41125
1741711149.8989098,-0.930677,0.359046,0.159637,0.945,-0.46375,0.4025
1741711149.9013748,-0.916708,0.354593,0.150243,1.2950000000000002,-0.46375,0.28875
1741711149.9038105,-0.920246,0.356057,0.134627,0.1925,-0.14875,0.7962500000000001
1741711149.907169,-0.935435,0.368379,0.139263,-2.3625000000000003,-0.315,1.3125000000000002
1741711149.9102306,-0.960567,0.376492,0.162626,-3.2812500000000004,-0.5337500000000001,1.32125
1741711149.9126549,-0.942694,0.366732,0.175131,-0.8225000000000001,-0.14,0.7262500000000001
1741711149.915072,-0.924943,0.358253,0.173057,2.1787500000000004,0.21875,-0.60375
1741711149.9174187,-0.932751,0.358192,0.156526,3.7975,-0.23625,-1.3037500000000002
1741711149.9196353,-0.951722,0.357338,0.142984,2.1700000000000004,-0.6212500000000001,-0.5425000000000001
1741711149.921826,-0.949892,0.36173,0.140605,-1.1375000000000002,-0.8400000000000001,1.61875
1741711149.924363,-0.943121,0.365695,0.141398,-2.9137500000000003,-0.7262500000000001,2.7037500000000003
1741711149.9276495,-0.938424,0.372954,0.167933,-0.37625,-1.2512500000000002,1.65375
1741711149.9300623,-0.956724,0.3706359999999999,0.1834879999999999,-1.015,-1.2600000000000002,0.28875
1741711149.9323535,-0.955931,0.3660609999999999,0.176168,0.06125,-0.42875,-0.34125
1741711149.9359658,-0.914024,0.357033,0.156709,2.1875,1.32125,-0.315
1741711149.9385338,-0.894199,0.356911,0.14823,2.19625,1.37375,-0.0875
1741711149.941516,-0.912255,0.348737,0.147986,-0.28875,0.6125,0.315
1741711149.9440997,-0.951966,0.366244,0.156892,-0.5775,-0.44625,0.9625
1741711149.9463608,-0.980148,0.373808,0.170922,-0.385,-1.26875,1.23375
1741711149.948604,-0.974719,0.359961,0.177571,0.83125,-1.91625,0.8925000000000001
1741711149.950917,-0.958493,0.3688059999999999,0.1726909999999999,2.09125,-1.93375,0.56
1741711149.954246,-0.933178,0.357033,0.158356,1.3475,-0.14,0.3325
1741711149.9566472,-0.932812,0.360144,0.138287,-1.09375,1.09375,0.8487500000000001
1741711149.9593368,-0.924333,0.368867,0.139446,-3.56125,1.49625,1.6800000000000002
1741711149.9617426,-0.918538,0.36539,0.155794,-4.4625,1.16375,1.81125
1741711149.964118,-0.929213,0.361425,0.162443,-2.7300000000000004,0.21875,0.98875
1741711149.966576,-0.929579,0.363499,0.168848,-0.4025,-0.14875,-0.07
1741711149.9692206,-0.945317,0.364597,0.167506,2.2575000000000003,-0.91,-0.93625
1741711149.972077,-0.953796,0.3697209999999999,0.158356,3.99,-1.1462500000000002,-0.16625
1741711149.9757998,-0.950624,0.365939,0.146034,0.7262500000000001,-0.8750000000000001,1.33875
1741711149.978744,-0.927017,0.362584,0.150792,-1.37375,-0.21875,1.855
1741711149.9812016,-0.924638,0.3642309999999999,0.155489,-4.445,0.13125,1.6362500000000002
1741711149.9836547,-0.936533,0.3675859999999999,0.153659,-2.44125,0.35,1.04125
1741711149.9859738,-0.937631,0.36905,0.15616,-2.07375,0.28875,0.8662500000000001
1741711149.9882612,-0.930067,0.36783,0.164212,-1.61,-0.1225,0.25375
1741711149.9906902,-0.929762,0.360754,0.15433,-0.56,-0.7962500000000001,-0.385
1741711149.9939826,-0.924211,0.362279,0.159576,0.5337500000000001,-1.1900000000000002,-0.6125
1741711149.996891,-0.947513,0.3636209999999999,0.161406,0.8400000000000001,-1.3562500000000002,-0.09625
1741711149.9995542,-0.957517,0.364353,0.159027,0.42875,-0.98875,0.69125
1741711150.0023134,-0.952088,0.368684,0.16165,0.42875,-0.55125,1.54
1741711150.004823,-0.942816,0.370392,0.161528,0.0525,0.02625,1.5225000000000002
1741711150.00736,-0.940193,0.365573,0.157014,-0.805,0.25375,1.3475
1741711150.0100973,-0.935191,0.368013,0.149816,-1.4700000000000002,0.42,1.225
1741711150.0135028,-0.922686,0.363804,0.158478,-1.96,-0.07875,0.7525000000000001
1741711150.015906,-0.923662,0.360327,0.157563,-1.5312500000000002,-0.23625,0.13125
1741711150.0183146,-0.924272,0.364109,0.160308,-0.39375,-0.0875,-0.14875
1741711150.020669,-0.938058,0.366183,0.160857,0.945,0.0175,-0.30625
1741711150.023116,-0.94733,0.365939,0.161589,1.77625,-0.06125,-0.02625
1741711150.025993,-0.951234,0.36539,0.1582339999999999,2.135,-0.0875,0.48125
1741711150.0286016,-0.943853,0.362401,0.154879,1.8025,-0.3675,0.4725
1741711150.031212,-0.940925,0.362584,0.149328,0.30625,-0.7525000000000001,0.7525000000000001
1741711150.0339334,-0.930677,0.364292,0.1489619999999999,-1.3037500000000002,-0.7612500000000001,1.04125
1741711150.036825,-0.933605,0.366,0.149023,-2.56375,-0.6125,1.4700000000000002
1741711150.0391974,-0.933605,0.368135,0.154879,-2.9312500000000004,-0.34125,1.12875
1741711150.042494,-0.933727,0.365024,0.1594539999999999,-1.8025,-0.245,0.5162500000000001
1741711150.045608,-0.941474,0.365085,0.164822,0.21875,-0.09625,-0.23625
1741711150.0480294,-0.93696,0.362828,0.163114,1.3125000000000002,-0.14,-0.5337500000000001
1741711150.0504353,-0.937265,0.358985,0.157746,1.6975000000000002,-0.1225,-0.07875
1741711150.0530052,-0.936594,0.361852,0.149877,1.4087500000000002,-0.1225,0.44625
1741711150.0555696,-0.937753,0.374479,0.149938,0.69125,-0.18375,1.1725
1741711150.0588703,-0.942572,0.363438,0.151402,-0.95375,-0.35875,1.6450000000000002
1741711150.0615194,-0.942816,0.369172,0.15738,-1.5225000000000002,-0.48125,1.49625
1741711150.064433,-0.933178,0.364963,0.163724,-1.5137500000000002,-0.30625,0.74375
1741711150.0669503,-0.930372,0.364719,0.16287,-1.00625,0.035,0.32375
1741711150.0695372,-0.933605,0.364658,0.156892,-0.5162500000000001,0.18375,0.16625
1741711150.0717213,-0.936594,0.366915,0.1483519999999999,-0.105,0.04375,0.20125
1741711150.0743432,-0.936045,0.362584,0.156831,0.105,-0.34125,0.35875
1741711150.077754,-0.939583,0.359168,0.1600639999999999,0.6825000000000001,-0.74375,0.3325
1741711150.0800886,-0.942267,0.361669,0.154086,0.9275,-0.91,0.41125
1741711150.0824242,-0.944036,0.364353,0.158905,0.6125,-0.8137500000000001,0.63875
1741711150.0847104,-0.939461,0.366,0.15616,-0.35,-0.5950000000000001,0.945
1741711150.0870168,-0.94001,0.36783,0.1600639999999999,-1.39125,-0.385,1.2950000000000002
1741711150.0893245,-0.934093,0.36844,0.158905,-1.8725000000000005,-0.09625,1.16375
1741711150.0921755,-0.930677,0.367403,0.161772,-1.81125,-0.1225,0.98
1741711150.0946624,-0.924272,0.363987,0.158661,-1.1375000000000002,0.07875,0.5950000000000001
1741711150.0972908,-0.933971,0.364902,0.160186,-0.175,0.035,0.245
1741711150.1001348,-0.934459,0.365024,0.160308,0.945,-0.09625,0.04375
1741711150.102456,-0.941108,0.363804,0.156221,1.00625,-0.2975,0.2275
1741711150.1046946,-0.939949,0.365573,0.159515,1.1375000000000002,-0.5162500000000001,0.32375
1741711150.1074097,-0.938729,0.366488,0.158173,0.6125,-0.6737500000000001,0.6212500000000001
1741711150.1118371,-0.941352,0.365634,0.15555,-0.28,-0.2975,0.88375
1741711150.114511,-0.938729,0.368013,0.157868,-1.3037500000000002,-0.14875,1.1375000000000002
1741711150.1168969,-0.939461,0.3654509999999999,0.150487,-1.4175000000000002,0.0525,1.18125
1741711150.1191883,-0.934093,0.369294,0.15311,-1.28625,-0.0175,1.0675
1741711150.1217582,-0.933483,0.369782,0.161345,-0.91875,-0.21,0.6737500000000001
1741711150.124258,-0.932019,0.367464,0.162199,-0.0875,-0.41125,0.2975
1741711150.1272118,-0.93635,0.360876,0.1588439999999999,0.46375,-0.6562500000000001,0.00875
1741711150.1299987,-0.939339,0.363316,0.156709,0.83125,-0.5425000000000001,0.06125
1741711150.1332388,-0.93818,0.364475,0.154574,0.5950000000000001,-0.35,0.4375
1741711150.1355145,-0.941901,0.36844,0.152805,0.035,-0.2975,0.805
1741711150.1378274,-0.938424,0.367708,0.1586,-0.7350000000000001,-0.27125,1.015
1741711150.140209,-0.940071,0.365695,0.1582339999999999,-1.225,-0.21875,1.00625
1741711150.143501,-0.93574,0.366488,0.161833,-0.98,-0.18375,0.77875
1741711150.1460643,-0.935923,0.363743,0.155977,-0.63875,-0.2625,0.48125
1741711150.148569,-0.934459,0.364719,0.153537,-0.42,-0.39375,0.69125
1741711150.1510184,-0.934947,0.361852,0.155672,-0.21875,-0.39375,0.55125
1741711150.153448,-0.941291,0.365817,0.160308,-0.1225,-0.525,0.42875
1741711150.1558754,-0.941108,0.3654509999999999,0.15982,0.105,-0.48125,0.48125
1741711150.1604433,-0.940071,0.363743,0.159332,0.07,-0.18375,0.48125
1741711150.1628478,-0.937692,0.360083,0.156648,0.105,-0.23625,0.5075000000000001
1741711150.1656468,-0.929579,0.360144,0.157868,-0.28875,0.00875,0.74375
1741711150.1681302,-0.934032,0.362706,0.152927,-0.63875,0.07875,0.98
1741711150.1704354,-0.932507,0.3642309999999999,0.153354,-0.8400000000000001,-0.23625,0.8225000000000001
1741711150.172687,-0.937814,0.363438,0.154696,-0.8662500000000001,-0.42,0.7612500000000001
1741711150.1758614,-0.935008,0.365207,0.165371,-0.4025,-0.665,0.49875
1741711150.178915,-0.941291,0.363316,0.160186,0.34125,-0.55125,0.1925
1741711150.181361,-0.945317,0.3648409999999999,0.1597589999999999,0.5425000000000001,-0.35875,0.14875
1741711150.1839328,-0.942877,0.360388,0.15067,0.27125,-0.04375,0.37625
1741711150.1865032,-0.934398,0.363682,0.154635,-0.2625,2.1525000000000003,0.8575
1741711150.1888444,-0.93757,0.358497,0.147681,-0.6475000000000001,-0.02625,1.015
1741711150.19168,-0.934215,0.364292,0.157868,-1.05,-0.13125,1.015
1741711150.194454,-0.940925,0.365085,0.157563,-0.69125,-0.35875,0.8662500000000001
1741711150.197338,-0.924821,0.365634,0.159027,-0.385,-0.385,0.6125
1741711150.1995692,-0.939705,0.364353,0.158173,-0.105,-0.2975,0.49875
1741711150.2018669,-0.935618,0.368562,0.160491,0.27125,-0.20125,0.42875
1741711150.2049465,-0.937753,0.364902,0.155733,-0.0175,-0.34125,0.6562500000000001
1741711150.2073567,-0.934947,0.3678909999999999,0.1600639999999999,-0.14,-0.2275,0.77875
1741711150.2102962,-0.933788,0.363743,0.154574,-0.16625,-0.1925,0.7350000000000001
1741711150.212702,-0.934581,0.363987,0.154452,-0.245,-0.32375,0.7087500000000001
1741711150.2152264,-0.940132,0.363316,0.1545129999999999,-0.34125,-0.35875,0.5075000000000001
1741711150.2176075,-0.940742,0.3681959999999999,0.1532929999999999,-0.39375,-0.35,0.7175
1741711150.2199123,-0.936411,0.367159,0.1597589999999999,-0.77,-0.34125,0.6825000000000001
1741711150.2239895,-0.937387,0.3651459999999999,0.1591489999999999,-0.42,-0.42875,0.44625
1741711150.2277448,-0.935435,0.363438,0.1600639999999999,-0.2275,-0.41125,0.455
1741711150.2314694,-0.939278,0.367708,0.158966,0.00875,-0.28,0.665
1741711150.2338858,-0.942877,0.370575,0.1525,-0.14875,-0.16625,0.8925000000000001
1741711150.2363255,-0.94367,0.363377,0.155611,-0.30625,-0.16625,0.665
1741711150.238654,-0.935984,0.363865,0.159332,-0.0875,-0.28,0.5687500000000001
1741711150.2410305,-0.935374,0.36173,0.157258,-0.21,-0.175,0.58625
1741711150.2441032,-0.939705,0.3657559999999999,0.154696,-0.35,-0.20125,0.58625
1741711150.2466228,-0.938058,0.367037,0.1588439999999999,-0.5075000000000001,-0.11375,0.5425000000000001
1741711150.2489998,-0.936045,0.3675859999999999,0.158783,-0.55125,-0.14875,0.6475000000000001
1741711150.2513657,-0.94245,0.361791,0.1545129999999999,-0.0875,-0.18375,0.55125
1741711150.2536514,-0.9394,0.363072,0.155001,0.0875,-0.30625,0.34125
1741711150.2578256,-0.937509,0.363804,0.152866,0.06125,-0.4725,0.48125
1741711150.2609787,-0.942389,0.366244,0.15616,-0.28875,-0.5775,0.7175
1741711150.2635138,-0.940376,0.3645359999999999,0.157685,-0.49,-0.60375,0.69125
1741711150.2660162,-0.942145,0.362218,0.1609789999999999,-0.8487500000000001,-0.5425000000000001,0.5950000000000001
1741711150.2683408,-0.936899,0.363194,0.16104,-0.39375,-0.46375,0.665
1741711150.2706451,-0.935008,0.36051,0.157624,-0.175,-0.385,0.42875
1741711150.2728343,-0.934337,0.365512,0.163175,-0.28875,-0.175,0.44625
1741711150.276261,-0.921588,0.360754,0.1520729999999999,-0.5162500000000001,-0.14875,0.63875
1741711150.2799618,-0.94062,0.364658,0.17019,-0.4725,-0.175,0.6212500000000001
1741711150.2825406,-0.94184,0.364109,0.162748,-0.21,-0.35875,0.58625
1741711150.2871864,-0.94062,0.36173,0.163602,0.14875,-0.46375,0.48125
1741711150.2902155,-0.935191,0.361791,0.1551229999999999,0.13125,-0.1575,0.6737500000000001
1741711150.293,-0.937143,0.361547,0.1532929999999999,-0.5337500000000001,-0.06125,0.91875
1741711150.2953746,-0.93208,0.362889,0.141154,-0.9275,0.00875,0.9275
1741711150.2977414,-0.941718,0.363438,0.156648,-0.665,-0.09625,0.91
1741711150.3000407,-0.938973,0.361669,0.156648,-0.4375,-0.175,0.6212500000000001
1741711150.302241,-0.931836,0.360449,0.159393,-0.18375,-0.28,0.56
1741711150.3043532,-0.934947,0.3636209999999999,0.1532929999999999,2.1525000000000003,-0.1575,0.315
1741711150.3068173,-0.932568,0.36661,0.158661,0.14,-0.3325,0.39375
1741711150.309419,-0.93574,0.366427,0.151524,0.00875,-0.4025,0.6825000000000001
1741711150.3123248,-0.932995,0.3648409999999999,0.15616,-0.34125,-0.42875,0.8400000000000001
1741711150.3146875,-0.94245,0.364048,0.158417,-0.48125,-0.6475000000000001,0.7612500000000001
1741711150.3172662,-0.934032,0.363133,0.162321,-0.37625,-0.44625,0.7000000000000001
1741711150.3199265,-0.934398,0.362706,0.158783,-0.3675,-0.385,0.69125
1741711150.3226166,-0.93513,0.366915,0.1606739999999999,-0.25375,-0.245,0.69125
1741711150.3251507,-0.933666,0.3663659999999999,0.155733,-0.5075000000000001,-0.2275,0.69125
1741711150.328929,-0.934703,0.366549,0.1586,-0.77,-0.13125,0.63875
1741711150.3315406,-0.931897,0.365634,0.1582339999999999,-0.6737500000000001,-0.2975,0.4375
1741711150.3340232,-0.939156,0.3654509999999999,0.160125,-0.18375,-0.525,0.5425000000000001
1741711150.3364463,-0.939095,0.3669759999999999,0.1600639999999999,0.18375,-0.32375,0.5162500000000001
1741711150.3388774,-0.935069,0.36661,0.161101,0.315,-0.35875,0.48125
1741711150.3414395,-0.93879,0.3642309999999999,0.151402,0.20125,-0.25375,0.7350000000000001
1741711150.3443365,-0.937326,0.3651459999999999,0.153232,-0.35875,-0.1575,0.805
1741711150.3469114,-0.935862,0.36661,0.152561,-0.74375,-0.30625,0.945
1741711150.3497632,-0.93879,0.365512,0.155611,-0.6212500000000001,-0.32375,0.7350000000000001
1741711150.352436,-0.936716,0.367342,0.156892,-0.2975,-0.25375,0.7262500000000001
1741711150.3549037,-0.929945,0.361181,0.162016,-0.30625,-0.245,0.3325
1741711150.3571413,-0.938485,0.367647,0.158112,-0.16625,-0.2975,0.2625
1741711150.3602612,-0.936899,0.365024,0.1600639999999999,0.00875,-0.34125,0.42875
1741711150.3628392,-0.939644,0.363499,0.1492669999999999,-0.04375,-0.32375,0.525
1741711150.3651893,-0.94184,0.363804,0.151097,0.0875,-0.4375,0.63875
1741711150.3674762,-0.940681,0.365573,0.154574,-0.16625,-0.385,0.6562500000000001
1741711150.3699574,-0.94367,0.3654509999999999,0.155306,-0.175,-0.28875,0.7350000000000001
1741711150.372505,-0.93879,0.363682,0.156099,-0.6212500000000001,-0.30625,0.77
1741711150.375133,-0.939095,0.364475,0.15616,-0.455,-0.14,0.7087500000000001
1741711150.3777993,-0.934093,0.363682,0.155001,-0.49875,-0.18375,0.525
1741711150.3802328,-0.936411,0.365207,0.158356,-0.42,-0.1225,0.41125
1741711150.3827243,-0.933117,0.366915,0.159027,-0.4375,-0.175,0.49875
1741711150.385879,-0.940254,0.363072,0.156953,-0.18375,-0.16625,0.4725
1741711150.3891954,-0.932751,0.364048,0.157319,0.07,-0.20125,0.4375
1741711150.391696,-0.936838,0.364109,0.156282,0.16625,-0.41125,0.6125
1741711150.394435,-0.942572,0.362523,0.153171,-0.0175,-0.2975,0.74375
1741711150.3966448,-0.945744,0.363499,0.154635,-0.385,-0.32375,0.6562500000000001
1741711150.3988707,-0.935374,0.364048,0.158295,-0.34125,-0.30625,0.7350000000000001
1741711150.4011643,-0.934886,0.364963,0.1582339999999999,-0.48125,-0.2975,0.7962500000000001
1741711150.404399,-0.93696,0.3648409999999999,0.155916,-0.42,-0.32375,0.5425000000000001
1741711150.406715,-0.938546,0.365939,0.15555,-0.4375,-0.3675,0.5075000000000001
1741711150.4095893,-0.940559,0.363682,0.157624,-0.6125,-0.385,0.6562500000000001
1741711150.4119964,-0.938485,0.364597,0.1551229999999999,-0.35,-0.385,0.5687500000000001
1741711150.4144938,-0.935618,0.365085,0.158356,-0.25375,-0.34125,0.6125
1741711150.4179482,-0.936777,0.36539,0.157075,-0.07875,-0.315,0.4725
1741711150.4201615,-0.940559,0.362096,0.1545129999999999,-0.16625,-0.2625,0.525
1741711150.4223075,-0.937997,0.363743,0.152622,-0.14,-0.20125,0.6825000000000001
1741711150.4245102,-0.936228,0.36295,0.1542079999999999,-0.42,-0.0175,0.69125
1741711150.4273918,-0.934886,0.363133,0.158478,-0.49875,-0.2275,0.83125
1741711150.429777,-0.939461,0.363011,0.155062,-0.6737500000000001,-0.42875,0.7525000000000001
1741711150.4319897,-0.938729,0.365512,0.1668349999999999,-0.44625,-0.35,0.7000000000000001
1741711150.4341972,-0.937753,0.36722,0.156831,-0.21875,-0.2975,0.7175
1741711150.4363842,-0.93757,0.3660609999999999,0.155367,-0.00875,-0.27125,0.455
1741711150.4385884,-0.936472,0.36478,0.156282,2.21375,-0.18375,0.42
1741711150.441215,-0.933239,0.363987,0.152927,0.0875,-0.07875,0.6562500000000001
1741711150.443905,-0.940254,0.365329,0.155001,-0.27125,-0.175,0.6475000000000001
1741711150.446483,-0.93818,0.36173,0.155489,-0.2625,-0.315,0.665
1741711150.4498389,-0.952454,0.365329,0.157136,-0.25375,-0.455,0.6125
1741711150.4522612,-0.938241,0.368684,0.158173,-0.13125,-0.5162500000000001,0.525
1741711150.4545493,-0.937814,0.368074,0.140605,-0.0525,-0.42875,0.6825000000000001
1741711150.4569006,-0.93696,0.368257,0.160003,-0.32375,-0.2625,0.7175
1741711150.4602602,-0.937204,0.3645359999999999,0.154391,-0.385,-0.21875,0.7087500000000001
1741711150.4630315,-0.931592,0.366549,0.153964,-0.46375,-0.11375,0.5425000000000001
1741711150.4653215,-0.937936,0.365817,0.156282,-0.3325,-0.48125,0.60375
1741711150.4677005,-0.943975,0.36478,0.171532,-0.55125,-0.63875,0.5687500000000001
1741711150.470074,-0.934093,0.366793,0.167201,-0.42,-0.5162500000000001,0.7525000000000001
1741711150.472414,-0.928237,0.364597,0.164639,0.07875,-0.2975,0.7350000000000001
1741711150.4748292,-0.92781,0.366,0.158966,0.14875,-0.245,0.6212500000000001
1741711150.478739,-0.94367,0.365817,0.155794,-0.525,-0.525,0.6212500000000001
1741711150.481386,-0.937265,0.367708,0.159271,-0.8662500000000001,-0.28,0.7525000000000001
1741711150.4838014,-0.929335,0.363438,0.1603689999999999,-0.95375,-0.04375,0.7087500000000001
1741711150.4861126,-0.930006,0.366305,0.158356,2.0562500000000004,-0.1225,0.27125
1741711150.488282,-0.939339,0.3660609999999999,0.1579289999999999,0.49,-0.245,0.30625
1741711150.4905186,-0.940864,0.363743,0.155062,-0.00875,-0.20125,0.34125
1741711150.4938433,-0.939705,0.366244,0.157624,-0.35875,-0.28,0.8575
1741711150.4963284,-0.930799,0.365207,0.15921,-0.455,-0.4025,0.8662500000000001
1741711150.4986122,-0.927993,0.364292,0.161711,-0.14875,-0.46375,0.48125
1741711150.5008848,-0.932934,0.361974,0.162809,0.18375,-0.44625,0.42
1741711150.503238,-0.94123,0.364597,0.161162,-0.2275,-0.175,0.4375
1741711150.505478,-0.940132,0.3642309999999999,0.154879,-0.5162500000000001,-0.18375,0.6125
1741711150.5089056,-0.935923,0.363743,0.152744,-0.4375,-0.06125,0.5950000000000001
1741711150.511542,-0.931409,0.3583139999999999,0.158295,-0.1575,-0.1925,0.34125
1741711150.5142543,-0.938607,0.3639259999999999,0.1526829999999999,-0.245,-0.28875,0.3675
1741711150.516922,-0.941535,0.3651459999999999,0.155428,-0.27125,-0.37625,0.6562500000000001
1741711150.5193624,-0.94367,0.3688059999999999,0.156831,-0.35875,-0.35,0.5950000000000001
1741711150.5216117,-0.94123,0.363377,0.156526,-0.315,-0.3325,0.5337500000000001
1741711150.523849,-0.922747,0.36051,0.158966,-0.035,-0.2975,0.69125
1741711150.5267243,-0.93513,0.362279,0.157136,-2.2225,0.00875,0.74375
1741711150.5296257,-0.938668,0.362218,0.152317,-0.25375,-0.06125,0.6825000000000001
1741711150.531965,-0.938241,0.363133,0.161589,-0.5075000000000001,-0.245,0.69125
1741711150.5342512,-0.938729,0.36356,0.170312,-0.46375,-0.30625,0.6825000000000001
1741711150.536447,-0.93574,0.362035,0.156892,-0.21,-0.4025,0.41125
1741711150.5386748,-0.934215,0.363255,0.158966,-0.245,-0.35,0.48125
1741711150.5413685,-0.940254,0.363438,0.155062,-0.0875,-0.48125,0.525
1741711150.5442443,-0.938546,0.365207,0.158295,-0.35875,-0.44625,0.77
1741711150.5474486,-0.932446,0.361791,0.159027,-0.315,-0.23625,0.7262500000000001
1741711150.549867,-0.933605,0.361181,0.157197,-0.28875,-0.35875,0.5075000000000001
1741711150.5522032,-0.936655,0.362828,0.154147,-0.35875,-0.41125,0.5687500000000001
1741711150.5544367,-0.943609,0.36661,0.169031,-0.3675,-0.34125,0.6737500000000001
1741711150.556605,-0.94672,0.368867,0.152805,-0.455,-0.30625,0.88375
1741711150.5591166,-0.939583,0.364292,0.158722,-0.42,-0.35,0.83125
1741711150.5624616,-0.934642,0.362767,0.161467,-0.0525,-0.49,0.5775
1741711150.564927,-0.937021,0.363743,0.157319,0.0,-0.37625,0.5162500000000001
1741711150.567296,-0.936411,0.366244,0.161162,-0.385,-0.1575,0.7525000000000001
1741711150.5696466,-0.933056,0.364475,0.15982,-0.58625,-0.06125,0.8925000000000001
1741711150.5724242,-0.93269,0.364414,0.159088,-0.455,-0.035,0.8925000000000001
1741711150.5763586,-0.934947,0.36539,0.162565,-0.0525,-0.11375,0.46375
1741711150.5807822,-0.939827,0.365817,0.158356,0.0875,-0.28,0.4725
1741711150.5832558,-0.938485,0.36539,0.156709,0.0175,-0.25375,0.7000000000000001
1741711150.5855954,-0.932629,0.366793,0.155306,-0.1925,-0.34125,0.7525000000000001
1741711150.5878484,-0.93574,0.362218,0.159088,-0.175,-0.32375,0.60375
1741711150.5900586,-0.933788,0.369965,0.158417,-0.42875,-0.37625,0.665
1741711150.5926085,-0.943121,0.368135,0.157746,-0.4725,-0.37625,0.7962500000000001
1741711150.596313,-0.940254,0.363865,0.156099,-0.245,-0.105,0.46375
1741711150.5986452,-0.931958,0.363987,0.154391,-0.07,-0.21,0.455
1741711150.6009283,-0.934642,0.367037,0.152561,-0.14875,-0.35875,0.48125
1741711150.603334,-0.940864,0.362828,0.15311,-0.1925,-0.3325,0.5162500000000001
1741711150.6061792,-0.941962,0.365329,0.155672,-0.55125,-0.2625,0.77875
1741711150.6109753,-0.937448,0.364292,0.156831,-0.4025,-0.34125,0.7175
1741711150.6135144,-0.937326,0.36417,0.158356,-0.06125,-0.28,0.5162500000000001
1741711150.616367,-0.937387,0.364475,0.1525,-0.1925,-0.35875,0.4725
1741711150.618971,-0.933727,0.364963,0.155672,-0.23625,-0.3325,0.5950000000000001
1741711150.621194,-0.934032,0.3651459999999999,0.1523779999999999,-0.455,-0.25375,0.7000000000000001
1741711150.6236694,-0.923967,0.363865,0.157075,-0.58625,-0.37625,0.7612500000000001
1741711150.6269236,-0.934276,0.365939,0.158905,-0.34125,-0.3675,0.55125
1741711150.629722,-0.936655,0.366488,0.156343,-0.30625,-0.35,0.49
1741711150.6320329,-0.932507,0.367769,0.155672,-0.105,-0.34125,0.55125
1741711150.6343305,-0.940559,0.3645359999999999,0.160796,-0.44625,-0.41125,0.5687500000000001
1741711150.636983,-0.935374,0.36173,0.156221,-0.3675,-0.21875,0.665
1741711150.6399767,-0.93757,0.365268,0.152866,-0.44625,-0.315,0.6125
1741711150.6425135,-0.936655,0.366244,0.15677,-0.41125,-0.32375,0.6212500000000001
1741711150.6453056,-0.935923,0.36356,0.159393,-0.455,-0.2625,0.4725
1741711150.6477914,-0.93635,0.363377,0.159027,-0.3675,-0.34125,0.5425000000000001
1741711150.6502523,-0.931348,0.365268,0.158173,0.1225,-0.14,0.5075000000000001
1741711150.6526198,-0.9333,0.365024,0.160491,0.0175,-0.21,0.48125
1741711150.6549342,-0.933605,0.363194,0.15799,-2.24,-0.20125,0.6212500000000001
1741711150.6572795,-0.941962,0.364353,0.150792,-0.20125,-0.2975,0.6125
1741711150.6609726,-0.937875,0.361913,0.156465,-0.13125,-0.27125,0.5687500000000001
1741711150.6637218,-0.939217,0.3648409999999999,0.15555,-0.315,-0.4025,0.5162500000000001
1741711150.666062,-0.93696,0.363316,0.1582339999999999,-0.09625,-0.35,0.5775
1741711150.66857,-0.937936,0.364597,0.155977,-0.245,-0.14875,0.6562500000000001
1741711150.6719213,-0.933971,0.3663659999999999,0.154879,-0.28875,-0.30625,0.8750000000000001
1741711150.6744187,-0.937448,0.366488,0.158051,-0.41125,-0.4025,0.5687500000000001
1741711150.6782792,-0.940254,0.363682,0.156282,-0.41125,-0.5075000000000001,0.7087500000000001
1741711150.6806731,-0.935557,0.364902,0.16043,-0.42,-0.44625,0.6125
1741711150.6830742,-0.941352,0.3660609999999999,0.154025,-0.1575,-0.44625,0.48125
1741711150.685432,-0.925919,0.3657559999999999,0.160857,-0.1925,-0.385,0.5162500000000001
1741711150.6877518,-0.933666,0.366,0.158356,-0.34125,-0.23625,0.5337500000000001
1741711150.6906335,-0.936594,0.363743,0.15433,-0.30625,-0.105,0.6562500000000001
1741711150.6937313,-0.937692,0.364658,0.155062,-0.39375,-0.28875,0.6125
1741711150.6961148,-0.938485,0.364902,0.155794,-0.35875,-0.1925,0.4725
1741711150.6984742,-0.938119,0.360205,0.157136,-0.27125,-0.25375,0.8400000000000001
1741711150.7009888,-0.937509,0.364414,0.15677,-0.14875,-0.2625,0.5775
1741711150.7036617,-0.936045,0.3654509999999999,0.155672,-0.18375,-0.25375,0.5162500000000001
1741711150.7060218,-0.93757,0.365085,0.1539029999999999,-0.27125,-0.35875,0.7612500000000001
1741711150.7084262,-0.940986,0.362706,0.1594539999999999,-0.2975,-0.21,0.6212500000000001
1741711150.711516,-0.937997,0.362645,0.150975,-0.315,-0.35,0.74375
1741711150.7139444,-0.938302,0.363804,0.154025,-0.315,-0.28875,0.5337500000000001
1741711150.7162695,-0.939156,0.365268,0.154025,-0.5075000000000001,-0.14875,0.6825000000000001
1741711150.7186885,-0.941596,0.364292,0.155733,-0.49,-0.18375,0.7262500000000001
1741711150.7210038,-0.933605,0.365207,0.157136,-0.37625,-0.30625,0.6475000000000001
1741711150.723318,-0.938363,0.3654509999999999,0.161162,-0.455,-0.37625,0.7262500000000001
1741711150.725693,-0.937265,0.366427,0.170068,-0.2975,-0.6300000000000001,0.6562500000000001
1741711150.728248,-0.92171,0.3654509999999999,0.157319,-0.18375,-0.35,0.5337500000000001
1741711150.7310352,-0.935557,0.368745,0.156587,-0.18375,-0.3675,0.5950000000000001
1741711150.734892,-0.936777,0.3654509999999999,0.152866,2.135,-0.30625,0.49
1741711150.738269,-0.939095,0.367098,0.156404,-0.37625,-0.21,0.6737500000000001
1741711150.7407272,-0.93513,0.365878,0.154086,-0.58625,-0.385,0.63875
1741711150.7434835,-0.934947,0.3663659999999999,0.160735,-0.5075000000000001,-0.39375,0.69125
1741711150.7459323,-0.938668,0.363682,0.156526,-0.3325,-0.3675,0.4725
1741711150.7482402,-0.938363,0.365939,0.157258,-0.25375,-0.42,0.4375
1741711150.750594,-0.93818,0.364109,0.157319,-0.25375,-0.3325,0.55125
1741711150.7527778,-0.938241,0.365817,0.159637,-0.25375,-0.27125,0.5775
1741711150.7549274,-0.941596,0.366244,0.153537,-0.2275,-0.2625,0.6125
1741711150.757161,-0.938851,0.363438,0.151707,-0.1575,-0.2625,0.6562500000000001
1741711150.760219,-0.93574,0.367098,0.157563,-0.20125,-0.44625,0.5775
1741711150.7628784,-0.936045,0.365085,0.162321,-0.23625,-0.3675,0.69125
1741711150.765325,-0.937326,0.3651459999999999,0.155672,-0.35,-0.35,0.69125
1741711150.7679007,-0.937814,0.363438,0.156526,-0.3325,-0.2975,0.60375
1741711150.7702162,-0.940071,0.365817,0.158478,-0.41125,-0.23625,0.55125
1741711150.7723908,-0.936716,0.366793,0.157136,-0.21875,-0.28875,0.42
1741711150.7746005,-0.938302,0.3639259999999999,0.156709,-0.18375,-0.20125,0.5425000000000001
1741711150.7770486,-0.935008,0.36539,0.1594539999999999,-0.07875,-0.41125,0.55125
1741711150.7803018,-0.935984,0.36539,0.158051,-0.0875,-0.39375,0.63875
1741711150.7825878,-0.935557,0.3660609999999999,0.161772,-0.35875,-0.385,0.7875000000000001
1741711150.784882,-0.938119,0.365939,0.153537,-0.18375,-0.39375,0.6475000000000001
1741711150.787265,-0.933239,0.364963,0.162748,-0.23625,-0.32375,0.5687500000000001
1741711150.7898314,-0.939766,0.364658,0.157136,-0.1575,-0.37625,0.6212500000000001
1741711150.7923615,-0.936228,0.362462,0.155306,-0.4025,-0.175,0.39375
1741711150.795235,-0.936106,0.366915,0.154757,-0.4375,-0.07,0.55125
1741711150.798093,-0.931104,0.366427,0.171349,-0.315,-0.00875,0.4725
1741711150.8014271,-0.937692,0.36661,0.1551229999999999,-0.2975,-0.18375,0.6475000000000001
1741711150.8037477,-0.942511,0.364292,0.155855,-0.18375,-0.42875,0.6475000000000001
1741711150.806192,-0.937143,0.364109,0.159271,-0.175,-0.34125,0.5950000000000001
1741711150.8085597,-0.942206,0.365939,0.155611,-0.04375,-0.3675,0.665
1741711150.8120031,-0.937265,0.364353,0.151707,-0.0525,-0.32375,0.5950000000000001
1741711150.8143356,-0.935496,0.367708,0.1609789999999999,-0.28,-0.35,0.6562500000000001
1741711150.81686,-0.937265,0.365329,0.151829,-0.6125,-0.2625,0.8575
1741711150.8191247,-0.933544,0.364719,0.1532929999999999,-0.83125,-0.35875,0.7875000000000001
1741711150.82163,-0.933727,0.365512,0.162748,-0.5075000000000001,-0.39375,0.6125
1741711150.823872,-0.932629,0.368013,0.166408,-0.5425000000000001,-0.315,0.5162500000000001
1741711150.8271096,-0.937753,0.366915,0.158966,-0.1925,-0.34125,0.42
1741711150.8296883,-0.937753,0.365634,0.15677,-0.0175,-0.37625,0.48125
1741711150.8324516,-0.936472,0.366305,0.158112,-0.0875,-0.28875,0.6212500000000001
1741711150.8349223,-0.939034,0.362889,0.156709,-0.0175,-0.175,0.7000000000000001
1741711150.8373053,-0.940742,0.365085,0.160247,-0.175,-0.32375,0.5950000000000001
1741711150.8395889,-0.934154,0.364353,0.162382,-0.14875,-0.3325,0.7612500000000001
1741711150.8419726,-0.93879,0.3694159999999999,0.158112,-0.35875,-0.23625,0.7962500000000001
1741711150.8449728,-0.938241,0.367098,0.157563,-0.37625,-0.14875,0.6212500000000001
1741711150.8474376,-0.936411,0.363072,0.156465,-0.32375,-0.2275,0.6300000000000001
1741711150.8498175,-0.934093,0.362279,0.154452,-0.44625,-0.14875,0.5950000000000001
1741711150.852155,-0.935618,0.363255,0.154269,-0.34125,-0.21875,0.5425000000000001
1741711150.8545022,-0.937814,0.36417,0.152134,-0.30625,-0.2625,0.5425000000000001
1741711150.856804,-0.93208,0.364902,0.162748,-0.06125,-0.245,0.58625
1741711150.8600152,-0.936533,0.364902,0.142374,0.1225,-0.455,0.48125
1741711150.8629158,-0.939644,0.3639259999999999,0.15677,-0.13125,-0.21,0.6562500000000001
1741711150.8660307,-0.940315,0.366488,0.149511,-0.4725,-0.49,0.7875000000000001
1741711150.8685722,-0.92415,0.364109,0.157258,-0.6300000000000001,-0.2625,0.77
1741711150.87098,-0.93879,0.366122,0.157319,-0.525,-0.49875,0.7262500000000001
1741711150.8732333,-0.940376,0.36417,0.156404,-0.5337500000000001,-0.3325,0.44625
1741711150.8756757,-0.931714,0.366,0.160552,-0.315,-0.41125,0.49875
1741711150.87966,-0.937448,0.365695,0.154086,-0.245,-0.2625,0.4725
1741711150.882126,-0.935374,0.362767,0.157746,-0.23625,-0.2975,0.6212500000000001
1741711150.884669,-0.936106,0.36112,0.155245,-0.14,-0.35,0.55125
1741711150.8872232,-0.938729,0.366732,0.157014,-0.25375,-0.42875,0.6300000000000001
1741711150.8897696,-0.939339,0.367098,0.1594539999999999,-0.21,-0.35,0.58625
1741711150.8927069,-0.937753,0.365573,0.160247,-0.37625,-0.35,0.6212500000000001
1741711150.8957016,-0.937753,0.3654509999999999,0.161345,-0.56,-0.28,0.7262500000000001
1741711150.8997426,-0.938729,0.364414,0.158051,-0.55125,-0.16625,0.77
1741711150.902289,-0.934703,0.366183,0.162992,-0.315,-0.35,0.5775
1741711150.9045968,-0.936838,0.3651459999999999,0.159393,-0.315,-0.21875,0.49
1741711150.9068482,-0.938424,0.361303,0.158417,-0.25375,-0.34125,0.5075000000000001
1741711150.9091494,-0.938058,0.364658,0.1579289999999999,-0.11375,-0.2975,0.5775
1741711150.9123917,-0.933788,0.363438,0.159515,0.00875,-0.21,0.39375
1741711150.9149098,-0.941108,0.365085,0.154391,0.07875,-0.34125,0.7000000000000001
1741711150.9171972,-0.935191,0.36417,0.155794,-0.23625,-0.18375,0.69125
1741711150.9195771,-0.922747,0.363438,0.158966,-0.49,-0.42,0.77
1741711150.9218454,-0.932446,0.366,0.161467,-0.42,-0.3675,0.7175
1741711150.9242003,-0.938058,0.362889,0.160552,-0.44625,-0.18375,0.7087500000000001
1741711150.92704,-0.936533,0.361974,0.157136,-0.39375,-0.2275,0.69125
1741711150.9303083,-0.939339,0.363194,0.156099,-0.4375,-0.34125,0.665
1741711150.9327111,-0.94001,0.363377,0.156709,-0.34125,-0.30625,0.5775
1741711150.9353752,-0.937753,0.362401,0.153415,-0.16625,-0.35,0.5162500000000001
1741711150.93763,-0.934398,0.3675859999999999,0.1594539999999999,-0.27125,-0.25375,0.4375
1741711150.9398413,-0.939156,0.365512,0.158356,0.0,-0.385,0.6737500000000001
1741711150.9421942,-0.939888,0.3678909999999999,0.15738,-0.09625,-0.18375,0.49875
1741711150.9456167,-0.934581,0.365268,0.159637,-0.28,-0.21,0.77
1741711150.9482477,-0.937631,0.364902,0.157563,-0.315,-0.28875,0.6125
1741711150.9506435,-0.934276,0.36356,0.15555,-0.4025,-0.315,0.5950000000000001
1741711150.9530082,-0.9394,0.36661,0.160308,-0.4025,-0.385,0.6212500000000001
1741711150.956679,-0.935313,0.3663659999999999,0.1579289999999999,-0.25375,-0.385,0.56
1741711150.959189,-0.936899,0.362706,0.157624,-0.2625,-0.44625,0.5775
1741711150.962987,-0.937143,0.365024,0.155367,-0.27125,-0.20125,0.5162500000000001
1741711150.9652646,-0.93574,0.3648409999999999,0.158173,-0.28,-0.14,0.42875
1741711150.967464,-0.933605,0.363194,0.160796,-0.1925,-0.20125,0.6562500000000001
1741711150.96971,-0.938241,0.3666709999999999,0.15982,-0.35,-0.2975,0.6562500000000001
1741711150.9730213,-0.939705,0.364353,0.156892,-0.2625,-0.1575,0.6300000000000001
1741711150.975571,-0.938241,0.362401,0.154269,-0.28875,-0.23625,0.525
1741711150.9784684,-0.935496,0.362401,0.155977,-0.1225,-0.28,0.58625
1741711150.9809933,-0.938546,0.367952,0.158478,-0.35,-0.25375,0.69125
1741711150.983452,-0.939217,0.362279,0.170129,-0.25375,-0.34125,0.6562500000000001
1741711150.9857936,-0.935618,0.363865,0.143228,-0.37625,-0.25375,0.77
1741711150.988603,-0.936899,0.363987,0.15616,-0.4025,-0.32375,0.49875
1741711150.9919348,-0.935618,0.363499,0.154086,-0.315,-0.28,0.5162500000000001
1741711150.9946444,-0.934947,0.362096,0.15677,-0.315,-0.11375,0.6212500000000001
1741711150.9974794,-0.936716,0.363438,0.15372,-0.34125,-0.2275,0.55125
1741711151.0000565,-0.941901,0.362462,0.168116,-0.385,-0.3325,0.5687500000000001
1741711151.0025363,-0.937509,0.364353,0.157197,-0.21875,-0.245,0.6212500000000001
1741711151.0048454,-0.940742,0.361364,0.155611,-0.37625,-0.39375,0.6300000000000001
1741711151.0071278,-0.937387,0.363194,0.159393,-0.14,-0.42,0.49875
1741711151.0094078,-0.936777,0.363987,0.158966,-0.245,-0.2975,0.60375
1741711151.012282,-0.937448,0.365085,0.154757,-0.23625,-0.385,0.6737500000000001
1741711151.015243,-0.939034,0.365573,0.157685,-0.23625,-0.34125,0.6475000000000001
1741711151.0178142,-0.940742,0.366244,0.158478,-0.41125,-0.4025,0.63875
1741711151.0203426,-0.937753,0.36539,0.17141,-0.42875,-0.35875,0.6125
1741711151.0230956,-0.937204,0.367403,0.158783,-0.60375,-0.46375,0.6562500000000001
1741711151.0260248,-0.939339,0.364414,0.155428,-0.39375,-0.34125,0.5775
1741711151.0285718,-0.934764,0.366305,0.160308,-0.2625,-0.20125,0.525
1741711151.0311697,-0.939156,0.363865,0.152866,-0.13125,-0.315,0.5687500000000001
1741711151.033673,-0.940376,0.365573,0.157075,-0.13125,-0.1925,0.7875000000000001
1741711151.0360556,-0.939705,0.367708,0.160003,-0.0875,-0.34125,0.7525000000000001
1741711151.0383935,-0.940437,0.364292,0.155916,-0.1575,-0.2975,0.74375
1741711151.0407145,-0.940254,0.3636209999999999,0.156038,-0.3325,-0.37625,0.7000000000000001
1741711151.0438626,-0.933422,0.3639259999999999,0.15494,-0.28,-0.27125,0.6737500000000001
1741711151.0464065,-0.933361,0.368379,0.15982,-0.49875,-0.20125,0.60375
1741711151.048778,-0.932812,0.366244,0.157502,-0.49875,-0.14875,0.69125
1741711151.051286,-0.93635,0.364719,0.158112,-0.28,-0.25375,0.525
1741711151.05381,-0.935374,0.362828,0.157136,-0.32375,-0.1225,0.58625
1741711151.0562785,-0.950014,0.362828,0.157502,-0.21,-0.23625,0.49
1741711151.059043,-0.934581,0.3675859999999999,0.158722,-0.16625,-0.455,0.5687500000000001
1741711151.061847,-0.942267,0.366488,0.156404,-0.0525,-0.44625,0.56
1741711151.0644944,-0.940742,0.366122,0.15677,-0.20125,-0.60375,0.6825000000000001
1741711151.0667868,-0.937936,0.365817,0.155428,-0.18375,-0.42,0.69125
1741711151.0689733,-0.937204,0.365634,0.15433,-0.48125,-0.32375,0.7962500000000001
1741711151.071494,-0.93879,0.364109,0.154391,-0.44625,-0.27125,0.74375
1741711151.0744328,-0.936533,0.364109,0.156038,-0.42875,-0.1225,0.6825000000000001
1741711151.077303,-0.934459,0.365878,0.141764,-0.4725,-0.2625,0.6125
1741711151.0797927,-0.93574,0.363804,0.1582339999999999,-0.2275,-0.21,0.5075000000000001
1741711151.0821996,-0.941718,0.363072,0.1588439999999999,-0.14,-0.28,0.34125
1741711151.0847998,-0.948611,0.36783,0.158417,0.0525,-0.315,0.37625
1741711151.08755,-0.937814,0.365878,0.154879,-0.04375,-0.2975,0.58625
1741711151.0899146,-0.938546,0.3654509999999999,0.155672,-0.175,-0.35875,0.5687500000000001
1741711151.0922232,-0.940864,0.366244,0.153659,-0.06125,-0.35875,0.7087500000000001
1741711151.0951378,-0.934337,0.3645359999999999,0.158112,-0.455,-0.37625,0.7000000000000001
1741711151.097609,-0.935679,0.364719,0.158051,-0.4725,-0.39375,0.5687500000000001
1741711151.0999508,-0.935435,0.3636209999999999,0.159393,-0.5075000000000001,-0.35875,0.6125
1741711151.1022606,-0.932324,0.363194,0.157685,-0.5687500000000001,-0.34125,0.60375
1741711151.1045809,-0.93879,0.361974,0.157441,-0.4375,-0.385,0.6737500000000001
1741711151.1068842,-0.932019,0.362279,0.158478,-0.32375,-0.385,0.49
1741711151.1093922,-0.940742,0.366122,0.15677,-0.3325,-0.27125,0.55125
1741711151.1125035,-0.939278,0.364658,0.157563,-0.0175,-0.30625,0.56
1741711151.1155186,-0.937936,0.364475,0.157807,0.07875,-0.385,0.58625
1741711151.118478,-0.942206,0.362401,0.156892,-0.02625,-0.35875,0.63875
1741711151.1211617,-0.940376,0.3639259999999999,0.156465,-0.28,-0.28,0.69125
1741711151.1236577,-0.935374,0.364658,0.1708609999999999,-0.28,-0.20125,0.805
1741711151.1261096,-0.936533,0.3636209999999999,0.155733,-0.5425000000000001,-0.21,0.7175
1741711151.1287365,-0.936838,0.36356,0.160796,-0.6475000000000001,-0.175,0.6212500000000001
1741711151.1310563,-0.938912,0.363011,0.15921,-0.42875,-0.21875,0.5775
1741711151.1341708,-0.936106,0.3645359999999999,0.1600639999999999,0.0525,-0.14875,0.455
1741711151.136532,-0.934459,0.3639259999999999,0.161711,0.0175,-0.2625,0.48125
1741711151.1387863,-0.934886,0.363316,0.160125,0.04375,-0.4025,0.5162500000000001
1741711151.141018,-0.9394,0.364719,0.154635,-0.21,-0.28875,0.6737500000000001
1741711151.1435275,-0.936655,0.365573,0.159515,-0.27125,-0.385,0.6475000000000001
1741711151.1461277,-0.940986,0.36844,0.1585389999999999,-0.30625,-0.32375,0.7087500000000001
1741711151.1487255,-0.939705,0.36783,0.155916,-0.4725,-0.34125,0.7000000000000001
