Timestamp,Accel X,Accel Y,Accel Z,Gyro X,Gyro Y,Gyro Z,Magneto X,Magneto Y,Magneto Z
1742920719.6693296,-1.027179,0.062525,-0.237473,-4.595496,-5.2996799999999995,5.185732,0.24495761473253436,-0.2092955276235019,0.11824028061970183
1742920719.7481897,-1.040233,0.044042,-0.228994,-0.172752,-0.008784,-0.066856,0.24495761473253436,-0.2092955276235019,0.11824028061970183
1742920719.8285959,-1.006073,0.042517,-0.21472,-0.144936,0.018788,-0.050508,0.26600409237065187,-0.21280327389652148,0.0944168371821105
1742920719.9088945,-1.007476,0.025193,-0.179279,-0.142984,0.040748,-0.042456,0.26600409237065187,-0.21280327389652148,0.0944168371821105
1742920719.9884088,-1.116605,0.01342,-0.113094,-0.154696,0.052704,-0.06466,0.26951183864367145,-0.21806489330605086,0.07746273019584916
1742920720.0685353,-1.004426,0.014579,-0.110654,-0.152012,0.004148,-0.04026,0.26951183864367145,-0.21806489330605086,0.07746273019584916
1742920720.1485841,-1.0836649999999999,0.066856,-0.15792899999999999,-0.137128,-0.022692,-0.00976,0.26951183864367145,-0.21806489330605086,0.07746273019584916
1742920720.2287056,-0.984113,0.056669,-0.127856,-0.107848,0.008539999999999999,-0.020496,0.275942706810874,-0.22946506869336453,0.05203156971645718
1742920720.308748,-0.8337479999999999,0.057583999999999996,-0.12444,-0.072956,-0.021228,-0.032452,0.275942706810874,-0.22946506869336453,0.05203156971645718
1742920720.3888586,-0.881084,0.052704,-0.13725,-0.059292,-0.064416,-0.012688,0.275942706810874,-0.22946506869336453,0.05203156971645718
1742920720.468922,-0.9989359999999999,0.069967,-0.249917,0.002196,-0.016592,0.033672,0.28792750657702426,-0.2335574393452207,0.013592516807950891
1742920720.549028,-1.131245,0.07625,-0.179218,0.047824,0.041724,0.04758,0.28792750657702426,-0.2335574393452207,0.013592516807950891
1742920720.6291347,-1.1840709999999999,0.051484,-0.098332,0.064904,0.03538,0.042943999999999996,0.27243496053785443,-0.24992692195264543,0.05378544285296697
1742920720.7091997,-1.085678,0.065148,-0.121695,0.037332,0.022935999999999998,0.02684,0.27243496053785443,-0.24992692195264543,0.05378544285296697
1742920720.789247,-0.9542229999999999,0.111813,-0.149389,0.047824,0.021716,0.005124,0.27243496053785443,-0.24992692195264543,0.05378544285296697
1742920720.8693497,-0.867908,0.059109,-0.123281,0.081008,0.024888,-0.018056,0.26366559485530544,-0.24086524408067816,0.06518561824028062
1742920720.94943,-0.734623,0.03721,-0.13694499999999998,0.081008,0.0017079999999999999,-0.035623999999999996,0.26366559485530544,-0.24086524408067816,0.06518561824028062
1742920721.0295086,-0.816973,0.024095,-0.17610699999999999,0.058804,-0.024644,-0.04392,0.27711195556854723,-0.20403390821397252,0.07337035954399299
1742920721.1095614,-1.041941,-0.00042699999999999997,-0.249185,0.022935999999999998,-0.033428,-0.04514,0.27711195556854723,-0.20403390821397252,0.07337035954399299
1742920721.1896732,-1.158573,-0.0053679999999999995,-0.253089,-0.018056,0.00732,-0.028791999999999998,0.27711195556854723,-0.20403390821397252,0.07337035954399299
1742920721.2697165,-1.170773,-0.02745,-0.221552,-0.034892,0.03172,-0.01464,0.2806197018415668,-0.19877228880444314,0.06723180356620871
1742920721.3498175,-1.211582,0.008113,-0.168238,-0.03294,0.038308,-0.032695999999999996,0.2806197018415668,-0.19877228880444314,0.06723180356620871
1742920721.4303405,-0.972096,-0.063623,-0.120414,-0.000488,0.053436,-0.02196,0.28120432622040337,-0.188833674364221,0.0819935691318328
1742920721.5112767,-0.905789,-0.025254,-0.114009,-0.010492,0.040748,0.006588,0.28120432622040337,-0.188833674364221,0.0819935691318328
1742920721.5900278,-0.796477,-0.00793,-0.1586,-0.023424,0.001464,0.034892,0.28120432622040337,-0.188833674364221,0.0819935691318328
1742920721.670565,-0.792817,-0.013847,-0.20843699999999998,-0.018056,-0.026595999999999998,0.024156,0.26629640456007014,-0.21046477638117508,0.07614732534346683
1742920721.750206,-0.954101,-0.043981,-0.227103,-0.0046359999999999995,-0.022203999999999998,0.032208,0.26629640456007014,-0.21046477638117508,0.07614732534346683
1742920721.8302505,-1.163514,-0.0059169999999999995,-0.234728,0.012931999999999999,-0.01952,0.044652,0.26629640456007014,-0.21046477638117508,0.07614732534346683
1742920721.9103413,-1.1840709999999999,0.039833,-0.23430099999999998,0.034648,-0.023424,0.030255999999999998,0.26892721426483485,-0.22420344928383515,0.0811166325635779
1742920721.990405,-0.994483,0.070394,-0.12017,0.058804,0.052216,0.03172,0.26892721426483485,-0.22420344928383515,0.0811166325635779
1742920722.0704963,-0.903593,0.057888999999999996,-0.142618,0.05856,0.032452,0.011712,0.2581116632563578,-0.21046477638117508,0.09485530546623794
1742920722.150559,-0.784948,0.008479,-0.155306,0.041724,0.00976,0.009271999999999999,0.2581116632563578,-0.21046477638117508,0.09485530546623794
1742920722.2306647,-0.760365,0.029341,-0.182207,0.016104,-0.012199999999999999,0.001464,0.2581116632563578,-0.21046477638117508,0.09485530546623794
1742920722.3107185,-0.871324,0.047214,-0.25254,0.00488,-0.043188,-0.015372,0.26425021923414205,-0.21134171294943,0.09967845659163987
1742920722.3908186,-1.092998,-0.003843,-0.28529699999999997,-0.008784,-0.049044,0.008296,0.26425021923414205,-0.21134171294943,0.09967845659163987
1742920722.4708843,-1.2388489999999999,0.027145,-0.250771,-0.03904,-0.015372,-0.000976,0.27038877521192634,-0.21134171294943,0.08360128617363344
1742920722.5509894,-1.29442,-0.0018909999999999999,-0.12986899999999998,-0.053191999999999996,0.038551999999999996,-0.032208,0.27038877521192634,-0.21134171294943,0.08360128617363344
1742920722.6310318,-1.016748,-0.007869,-0.124135,-0.085156,0.083692,-0.016592,0.27038877521192634,-0.21134171294943,0.08360128617363344
1742920722.7111435,-0.88023,-0.021716,-0.16652999999999998,-0.103944,0.066856,0.000732,0.2598655363928676,-0.22858813212510962,0.09470914937152879
1742920722.79119,-0.848205,0.04026,-0.210084,-0.086864,0.020496,0.024644,0.2598655363928676,-0.22858813212510962,0.09470914937152879
1742920722.8712986,-0.823866,0.064416,-0.232837,-0.040748,0.004148,0.029523999999999998,0.253434668225665,-0.24320374159602456,0.08272434960537854
1742920722.9513457,-0.849425,0.034099,-0.271694,0.006588,-0.012931999999999999,0.002928,0.253434668225665,-0.24320374159602456,0.08272434960537854
1742920723.0314515,-1.001498,0.058987,-0.285114,0.038064,-0.014152,-0.018056,0.253434668225665,-0.24320374159602456,0.08272434960537854
1742920723.1115007,-1.219695,0.045628,-0.244915,0.052216,0.005856,0.030987999999999998,0.2557731657410114,-0.2379421221864952,0.09807073954983923
1742920723.191605,-1.188768,0.119804,-0.209291,0.04026,0.034648,0.059047999999999996,0.2557731657410114,-0.2379421221864952,0.09807073954983923
1742920723.274939,-1.049871,0.104005,-0.263398,0.05124,0.000976,0.055876,0.24641917567962585,-0.24291142940660626,0.11414790996784566
1742920723.3552144,-0.956907,0.075579,-0.222894,0.073444,0.010735999999999999,-0.00244,0.24641917567962585,-0.24291142940660626,0.11414790996784566
1742920723.4464653,-0.855891,0.094855,-0.256627,0.081496,-0.037087999999999996,0.003904,0.24641917567962585,-0.24291142940660626,0.11414790996784566
1742920723.51633,-0.8894409999999999,0.018422,-0.250405,0.084424,-0.003172,-0.03904,0.2531423560362467,-0.21660333235895937,0.12394036831335867
1742920723.594585,-1.078236,-0.030073,-0.309209,0.0427,-0.010735999999999999,-0.03294,0.2531423560362467,-0.21660333235895937,0.12394036831335867
1742920723.674431,-1.199748,0.006954,-0.31354,-0.019275999999999998,0.005612,-0.001464,0.2531423560362467,-0.21660333235895937,0.12394036831335867
1742920723.7544777,-1.170834,0.016165,-0.204228,-0.061244,0.023424,0.014884,0.2508038585209003,-0.2087109032446653,0.12730195849166911
1742920723.8345613,-1.046455,0.020191,-0.20679,-0.078812,-0.00122,-0.004148,0.2508038585209003,-0.2087109032446653,0.12730195849166911
1742920723.9146264,-0.943304,-0.001403,-0.184525,-0.068076,0.009028,-0.0034159999999999998,0.24378836597486114,-0.22186495176848875,0.10640163694826074
1742920723.9947467,-0.765123,0.033733,-0.216916,-0.05368,-0.009028,0.004392,0.24378836597486114,-0.22186495176848875,0.10640163694826074
1742920724.0748067,-0.787876,0.035623999999999996,-0.205875,-0.030744,-0.044652,0.010735999999999999,0.24378836597486114,-0.22186495176848875,0.10640163694826074
1742920724.1549127,-1.045418,0.025131999999999998,-0.319274,-0.02684,-0.095648,0.042943999999999996,0.2595732242034493,-0.23881905875475007,0.07819351066939491
1742920724.2349522,-1.164246,0.084546,-0.343125,-0.017811999999999998,-0.033672,0.022448,0.2595732242034493,-0.23881905875475007,0.07819351066939491
1742920724.3150449,-1.142469,0.084485,-0.189527,0.019275999999999998,0.07002799999999999,0.004148,0.253434668225665,-0.23852674656533177,0.10420929552762351
1742920724.3957865,-1.089948,0.068686,-0.131577,0.046604,0.054655999999999996,0.004148,0.253434668225665,-0.23852674656533177,0.10420929552762351
1742920724.4752278,-0.981368,0.09089,-0.203252,0.045384,0.01098,0.011224,0.253434668225665,-0.23852674656533177,0.10420929552762351
1742920724.555313,-0.94306,0.080093,-0.186599,0.03172,0.037332,0.002196,0.2522654194679918,-0.2326805027769658,0.12247880736626718
1742920724.6353507,-0.820938,0.05185,-0.1586,0.029523999999999998,0.043432,-0.00732,0.2522654194679918,-0.2326805027769658,0.12247880736626718
1742920724.7154553,-0.733586,0.027938,-0.22447999999999999,0.02928,0.004148,-0.019275999999999998,0.24992692195264543,-0.2075416544869921,0.1308097047646887
1742920724.7955132,-0.831857,0.030987999999999998,-0.28041699999999997,0.034159999999999996,-0.013908,-0.051484,0.24992692195264543,-0.2075416544869921,0.1308097047646887
1742920724.875629,-1.0812249999999999,0.007442,-0.33305999999999997,0.017811999999999998,-0.029523999999999998,-0.048799999999999996,0.24992692195264543,-0.2075416544869921,0.1308097047646887
1742920724.9556813,-1.146251,-0.035685,-0.213744,-0.075152,0.062708,0.008784,0.24788073662671734,-0.205495469161064,0.12920198772288805
1742920725.0357919,-1.025349,0.0,-0.19825,-0.099064,0.035868,0.00366,0.24788073662671734,-0.205495469161064,0.12920198772288805
1742920725.1158433,-0.916159,-0.012871,-0.24095,-0.095404,-0.009028,-0.017079999999999998,0.24817304881613564,-0.22683425898859982,0.1180941245249927
1742920725.1959572,-0.927993,0.038979,-0.246562,-0.073688,-0.011956,-0.010735999999999999,0.24817304881613564,-0.22683425898859982,0.1180941245249927
1742920725.2760081,-0.787754,0.062525,-0.260165,-0.031232,-0.000732,-0.000488,0.24817304881613564,-0.22683425898859982,0.1180941245249927
1742920725.3561287,-0.780617,0.030378,-0.312747,0.006344,-0.013176,-0.0017079999999999999,0.24641917567962585,-0.2326805027769658,0.1050862320958784
1742920725.4361696,-1.019737,0.037454,-0.403881,0.017811999999999998,-0.029768,0.003904,0.24641917567962585,-0.2326805027769658,0.1050862320958784
1742920725.5167747,-1.150155,-0.02989,-0.360937,0.028304,0.016592,0.005612,0.24641917567962585,-0.2326805027769658,0.1050862320958784
1742920725.5963492,-1.173884,0.023667999999999998,-0.312991,0.014395999999999999,0.045628,0.022692,0.2513884828997369,-0.22741888336743643,0.11078631978953522
1742920725.6764388,-1.141066,0.125294,-0.261446,-0.021716,0.071492,0.042456,0.2513884828997369,-0.22741888336743643,0.11078631978953522
1742920725.7564917,-0.878949,0.09943,-0.202703,0.012931999999999999,0.068808,0.029523999999999998,0.2332651271558024,-0.24729611224788073,0.1299327681964338
1742920725.8365934,-0.837896,-0.016958,-0.18605,0.081496,-0.02928,-0.001464,0.2332651271558024,-0.24729611224788073,0.1299327681964338
1742920725.9166512,-0.76311,-0.001464,-0.249612,0.076128,-0.095404,-0.0183,0.2332651271558024,-0.24729611224788073,0.1299327681964338
1742920725.996762,-0.839665,0.0040869999999999995,-0.322019,0.043188,-0.077348,-0.027572,0.2522654194679918,-0.2130955860859398,0.11590178310435545
1742920726.0768116,-0.996435,-0.056547,-0.438956,0.024644,0.002928,-0.048799999999999996,0.2522654194679918,-0.2130955860859398,0.11590178310435545
1742920726.1569443,-1.021994,-0.040992,-0.309453,0.012444,0.099308,-0.05368,0.24671148786904415,-0.19000292312189418,0.1353405437006723
1742920726.2369804,-1.057496,-0.042212,-0.295545,-0.018543999999999998,0.027816,-0.026595999999999998,0.24671148786904415,-0.19000292312189418,0.1353405437006723
1742920726.3170974,-1.265384,-0.009882,-0.268522,-0.069296,-0.026108,0.0060999999999999995,0.24671148786904415,-0.19000292312189418,0.1353405437006723
1742920726.397143,-0.951539,-0.07649399999999999,-0.228628,-0.099308,-0.010492,0.027327999999999998,0.2540192926045016,-0.22098801520023384,0.11502484653610055
1742920726.4772573,-0.795074,0.033367,-0.29334899999999997,-0.090768,-0.047335999999999996,0.014152,0.2540192926045016,-0.22098801520023384,0.11502484653610055
1742920726.557335,-0.754143,0.022387,-0.301523,-0.034159999999999996,-0.028548,0.005612,0.25460391698333823,-0.22595732242034494,0.08871674948845366
1742920726.6373897,-0.957395,0.037087999999999996,-0.395097,0.006344,-0.028304,0.00976,0.25460391698333823,-0.22595732242034494,0.08871674948845366
1742920726.7174966,-1.2168889999999999,0.055265999999999996,-0.424194,0.03538,0.009271999999999999,0.028548,0.25460391698333823,-0.22595732242034494,0.08871674948845366
1742920726.7975497,-1.200114,0.054473,-0.276818,0.042212,0.07710399999999999,0.044407999999999996,0.24115755627009647,-0.2318035662087109,0.1065477930429699
1742920726.8776624,-1.147654,0.054717,-0.23485,0.067588,0.043188,0.032695999999999996,0.24115755627009647,-0.2318035662087109,0.1065477930429699
1742920726.957716,-0.930921,0.117181,-0.246928,0.104188,0.026352,0.010248,0.24115755627009647,-0.2318035662087109,0.1065477930429699
1742920727.0378256,-0.878339,0.064721,-0.217831,0.10931199999999999,0.019275999999999998,-0.006588,0.23677287342882197,-0.21484945922244958,0.1284712072493423
1742920727.1178777,-0.706319,0.039833,-0.252174,0.048068,-0.014152,-0.013663999999999999,0.23677287342882197,-0.21484945922244958,0.1284712072493423
1742920727.1979823,-0.762317,0.024827,-0.275232,-0.001464,-0.022935999999999998,0.000244,0.24232680502776965,-0.21631102016954107,0.13840982168956445
1742920727.2780437,-0.950807,0.0011589999999999999,-0.400831,-0.011712,-0.042212,0.00122,0.24232680502776965,-0.21631102016954107,0.13840982168956445
1742920727.3581448,-1.145763,0.008539999999999999,-0.41687399999999997,-0.0060999999999999995,-0.000732,-0.031232,0.24232680502776965,-0.21631102016954107,0.13840982168956445
1742920727.438199,-1.169675,0.009028,-0.340624,-0.017324,0.056119999999999996,-0.031476,0.24115755627009647,-0.20374159602455422,0.13680210464776382
1742920727.5188985,-1.113128,0.032269,-0.256749,-0.04026,0.049776,-0.021228,0.24115755627009647,-0.20374159602455422,0.13680210464776382
1742920727.5983753,-0.941108,-0.035807,-0.266509,-0.043676,-0.000244,-0.008296,0.23677287342882197,-0.21251096170710318,0.13417129494299912
1742920727.6784906,-0.898164,-0.021533,-0.223931,-0.059536,-0.012199999999999999,0.006344,0.23677287342882197,-0.21251096170710318,0.13417129494299912
1742920727.7585464,-0.7175429999999999,0.013725,-0.227896,-0.060511999999999996,-0.054168,0.011956,0.23677287342882197,-0.21251096170710318,0.13417129494299912
1742920727.8386827,-0.781471,0.011895,-0.309087,-0.042943999999999996,-0.07442,0.017324,0.2616194095293774,-0.21864951768488747,0.09558608593978368
1742920727.9187245,-0.9530029999999999,0.055388,-0.409676,-0.022935999999999998,-0.049776,0.026108,0.2616194095293774,-0.21864951768488747,0.09558608593978368
1742920727.9988375,-1.162965,0.005795,-0.273341,0.02928,0.02928,0.029523999999999998,0.24554223911137094,-0.23531131248173048,0.10961707103186202
1742920728.078899,-1.1411879999999999,0.058255,-0.24143799999999999,0.064416,-0.030012,0.02684,0.24554223911137094,-0.23531131248173048,0.10961707103186202
1742920728.1590078,-0.994239,0.103334,-0.257359,0.10248,-0.032452,0.012199999999999999,0.24554223911137094,-0.23531131248173048,0.10961707103186202
1742920728.2390637,-0.908961,0.048861,-0.205631,0.080276,0.011467999999999999,-0.004148,0.24904998538439052,-0.21514177141186788,0.11824028061970183
1742920728.3191757,-0.815265,0.015738,-0.211182,0.032208,0.000732,0.0068319999999999995,0.24904998538439052,-0.21514177141186788,0.11824028061970183
1742920728.3992598,-0.787571,0.041907,-0.265716,0.002196,-0.0183,-0.009271999999999999,0.24904998538439052,-0.21514177141186788,0.11824028061970183
1742920728.481414,-0.8851709999999999,0.025315,-0.331291,-0.0060999999999999995,-0.019032,-0.02928,0.24758842443729903,-0.205495469161064,0.12394036831335867
1742920728.5603626,-1.1308179999999999,0.012139,-0.394304,-0.015127999999999999,-0.0026839999999999998,-0.0053679999999999995,0.24758842443729903,-0.205495469161064,0.12394036831335867
1742920728.6509583,-1.139114,0.006344,-0.34172199999999997,-0.028059999999999998,0.054655999999999996,-0.001464,0.23881905875475007,-0.21221864951768488,0.13007892429114293
1742920728.722934,-1.143384,-0.027145,-0.20996199999999998,-0.046604,0.049288,-0.009516,0.23881905875475007,-0.21221864951768488,0.13007892429114293
1742920728.8038354,-0.987285,-0.06405,-0.225822,-0.047092,-0.023667999999999998,-0.023912,0.23881905875475007,-0.21221864951768488,0.13007892429114293
1742920728.8841672,-0.996618,-0.06527,-0.22045399999999998,-0.055632,-0.026108,-0.021471999999999998,0.24963460976322713,-0.22420344928383515,0.11341712949429991
1742920728.9640596,-0.767807,0.036844,-0.242475,-0.064904,-0.020252,0.008784,0.24963460976322713,-0.22420344928383515,0.11341712949429991
1742920729.0434253,-0.693265,0.048739,-0.211609,-0.044407999999999996,-0.035623999999999996,0.01342,0.2595732242034493,-0.2315112540192926,0.0710318620286466
1742920729.1242397,-0.9493429999999999,0.0046359999999999995,-0.305915,-0.018543999999999998,-0.095648,0.001464,0.2595732242034493,-0.2315112540192926,0.0710318620286466
1742920729.2036378,-1.155218,0.045994,-0.368257,-0.004148,-0.051727999999999996,-0.01464,0.2595732242034493,-0.2315112540192926,0.0710318620286466
1742920729.2846587,-1.170468,0.011956,-0.212707,0.029768,0.062708,-0.003172,0.2624963460976323,-0.21835720549546916,0.09602455422391114
1742920729.3645918,-1.112091,-0.013847,-0.147376,0.068076,0.043676,0.006344,0.2624963460976323,-0.21835720549546916,0.09602455422391114
1742920729.4447584,-1.006805,0.047519,-0.17263,0.08418,0.012931999999999999,0.026352,0.2543116047939199,-0.21631102016954107,0.10201695410698626
1742920729.5250812,-0.806725,0.019947,-0.148291,0.080276,0.011956,0.016836,0.2543116047939199,-0.21631102016954107,0.10201695410698626
1742920729.610769,-0.747982,-0.0071979999999999995,-0.215452,0.058804,-0.031232,-0.003172,0.2543116047939199,-0.21631102016954107,0.10201695410698626
1742920729.6842885,-0.914634,-0.030866,-0.281881,0.02684,-0.030012,-0.0017079999999999999,0.26220403390821395,-0.19760304004676996,0.10552470038000585
1742920729.7652273,-1.117215,-0.058621,-0.341356,-0.012688,-0.017811999999999998,-0.014395999999999999,0.26220403390821395,-0.19760304004676996,0.10552470038000585
1742920729.8445365,-1.148569,0.007076,-0.30134,-0.071736,0.022203999999999998,-0.011712,0.26571178018123354,-0.2069570301081555,0.105670856474715
1742920729.9250972,-1.064938,0.009089,-0.175009,-0.10004,0.07198,0.012688,0.26571178018123354,-0.2069570301081555,0.105670856474715
1742920730.0130043,-1.092571,-0.102785,-0.160857,-0.09028,0.037332,-0.004148,0.26571178018123354,-0.2069570301081555,0.105670856474715
1742920730.08498,-1.050542,-0.067649,-0.173911,-0.08052,0.0060999999999999995,-0.01342,0.25869628763519437,-0.21923414206372405,0.09967845659163987
1742920730.1651342,-0.818193,0.021471999999999998,-0.20843699999999998,-0.066368,-0.014152,0.0075639999999999995,0.25869628763519437,-0.21923414206372405,0.09967845659163987
1742920730.2459776,-0.767624,0.01891,-0.251869,-0.024399999999999998,-0.03538,-0.010248,0.25869628763519437,-0.21923414206372405,0.09967845659163987
1742920730.326138,-0.888465,0.020984,-0.267668,-0.00732,-0.01342,-0.0075639999999999995,0.26775796550716163,-0.22040339082139726,0.0799473838059047
1742920730.4136214,-1.012478,0.051057,-0.280356,0.009516,0.007076,-0.002928,0.26775796550716163,-0.22040339082139726,0.0799473838059047
1742920730.4861736,-1.107028,0.022326,-0.295606,0.043432,0.005124,0.000244,0.2528500438468284,-0.2101724641917568,0.09470914937152879
1742920730.5672002,-1.130391,0.023058,-0.204777,0.070516,0.044164,0.017811999999999998,0.2528500438468284,-0.2101724641917568,0.09470914937152879
1742920730.6462884,-1.140456,0.104249,-0.12023099999999999,0.102236,0.044896,0.028791999999999998,0.2528500438468284,-0.2101724641917568,0.09470914937152879
1742920730.7267747,-1.018944,0.024156,-0.169153,0.128588,-0.004392,0.017568,0.2554808535515931,-0.19789535223618826,0.12423268050277697
1742920730.8060958,-0.868091,-0.009028,-0.175375,0.102236,-0.01342,0.016836,0.2554808535515931,-0.19789535223618826,0.12423268050277697
1742920730.8869846,-0.7798849999999999,-0.025925,-0.195078,-0.000244,-0.038796,-0.0060999999999999995,0.2665887167494885,-0.19321835720549546,0.11137094416837182
1742920730.9678867,-1.025898,0.017995,-0.320311,0.012688,-0.050508,-0.0305,0.2665887167494885,-0.19321835720549546,0.11137094416837182
1742920731.0464382,-1.079456,-0.026108,-0.36880599999999997,-0.002928,-0.036356,-0.03538,0.2665887167494885,-0.19321835720549546,0.11137094416837182
1742920731.1273437,-1.115385,-0.06831999999999999,-0.278831,-0.041968,0.027572,-0.034159999999999996,0.267173341128325,-0.17831043554516224,0.1148786904413914
1742920731.2066789,-1.1801059999999999,-0.037576,-0.174887,-0.057583999999999996,0.035136,-0.007076,0.267173341128325,-0.17831043554516224,0.1148786904413914
1742920731.2868087,-0.949831,-0.086559,-0.155977,-0.060756,0.045384,-0.00244,0.26395790704472377,-0.1873721134171295,0.128178895059924
1742920731.3676767,-0.947269,-0.058011,-0.110593,-0.07198,0.06539199999999999,0.000976,0.26395790704472377,-0.1873721134171295,0.128178895059924
1742920731.447028,-0.95648,-0.029646,-0.163358,-0.051727999999999996,0.005612,0.017324,0.26395790704472377,-0.1873721134171295,0.128178895059924
1742920731.5292273,-0.8048339999999999,-0.04087,-0.239669,-0.01464,-0.037087999999999996,0.010003999999999999,0.26834258988599824,-0.20198772288804442,0.1140017538731365
1742920731.60721,-0.8139839999999999,-0.03843,-0.252479,0.00366,-0.032695999999999996,0.008539999999999999,0.26834258988599824,-0.20198772288804442,0.1140017538731365
1742920731.688129,-1.068476,-0.131089,-0.232288,0.002928,-0.012444,0.008539999999999999,0.26483484361297865,-0.20666471791873722,0.11224788073662671
1742920731.7674708,-1.1204479999999999,-0.024827,-0.17202,0.005612,0.020496,0.012931999999999999,0.26483484361297865,-0.20666471791873722,0.11224788073662671
1742920731.8476117,-1.107089,-0.054534,-0.305793,0.020984,-0.057828,0.028059999999999998,0.26483484361297865,-0.20666471791873722,0.11224788073662671
1742920731.9304085,-1.042551,-0.025376,-0.337818,0.0060999999999999995,-0.043676,0.022692,0.2548962291727565,-0.20169541069862612,0.1065477930429699
1742920732.00856,-0.903349,-0.028975,-0.147559,-0.0017079999999999999,0.052948,0.024399999999999998,0.2548962291727565,-0.20169541069862612,0.1065477930429699
1742920732.0884871,-1.07177,0.008967,-0.084546,0.011467999999999999,0.023912,-0.000244,0.2548962291727565,-0.20169541069862612,0.1065477930429699
1742920732.1681213,-0.9335439999999999,0.154574,-0.19178399999999998,0.01586,-0.038308,-0.017568,0.26074247296112246,-0.2098801520023385,0.10917860274773458
1742920732.2490358,-0.87108,0.064538,-0.185867,0.009271999999999999,-0.022203999999999998,-0.02196,0.26074247296112246,-0.2098801520023385,0.10917860274773458
1742920732.3319733,-0.961299,0.041602,-0.302377,-0.030255999999999998,-0.060268,0.011712,0.26395790704472377,-0.2075416544869921,0.0932475884244373
1742920732.408511,-0.980514,0.094123,-0.331291,-0.019275999999999998,-0.05734,-0.016592,0.26395790704472377,-0.2075416544869921,0.0932475884244373
1742920732.4886382,-0.9849669999999999,0.033184,-0.348615,-0.00366,-0.039528,-0.017079999999999998,0.26395790704472377,-0.2075416544869921,0.0932475884244373
1742920732.5708048,-1.069147,-0.007869,-0.337696,0.004392,-0.005612,-0.0075639999999999995,0.2850043846828413,-0.19760304004676996,0.0719087985969015
1742920732.6488717,-1.1283779999999999,-0.026962,-0.285663,-0.006588,0.052948,0.004148,0.2850043846828413,-0.19760304004676996,0.0719087985969015
1742920732.7296796,-1.189378,-0.02501,-0.14945,-0.022203999999999998,0.082716,0.010003999999999999,0.2765273311897106,-0.20257234726688103,0.10377082724349605
1742920732.8098907,-0.888465,-0.08912099999999999,-0.195444,-0.013908,0.051972,0.003904,0.2765273311897106,-0.20257234726688103,0.10377082724349605
1742920732.895033,-0.918782,-0.072163,-0.199287,-0.033184,0.048312,-0.009028,0.2765273311897106,-0.20257234726688103,0.10377082724349605
1742920732.9693046,-0.8282579999999999,-0.05551,-0.232654,-0.044896,0.016836,-0.016836,0.26951183864367145,-0.2130955860859398,0.09865536392867583
1742920733.0501997,-0.818559,-0.054655999999999996,-0.262727,-0.046116,-0.009271999999999999,-0.014152,0.26951183864367145,-0.2130955860859398,0.09865536392867583
1742920733.1302993,-0.8723609999999999,0.003111,-0.329156,-0.050263999999999996,-0.035136,-0.009028,0.26688102893890675,-0.2130955860859398,0.08930137386729027
1742920733.2104616,-1.05469,0.021533,-0.389607,-0.028304,-0.046848,0.006588,0.26688102893890675,-0.2130955860859398,0.08930137386729027
1742920733.297481,-1.168394,-0.027267,-0.303231,-0.00244,0.00244,0.041968,0.26688102893890675,-0.2130955860859398,0.08930137386729027
1742920733.3706715,-1.224087,0.053253,-0.169397,0.043432,0.029768,0.03172,0.265127155802397,-0.2098801520023385,0.08827828120432622
1742920733.450141,-1.037488,0.078446,-0.290543,0.10760399999999999,-0.026595999999999998,-0.016347999999999998,0.265127155802397,-0.2098801520023385,0.08827828120432622
1742920733.5316448,-1.001315,0.039345,-0.21459799999999998,0.0915,0.028304,-0.022692,0.265127155802397,-0.2098801520023385,0.08827828120432622
1742920733.6103134,-0.778299,0.010553,-0.183976,0.038064,0.045628,0.008784,0.2502192341420637,-0.19847997661502484,0.10961707103186202
1742920733.6911077,-0.724741,0.00976,-0.195261,0.010492,0.026108,0.00976,0.2502192341420637,-0.19847997661502484,0.10961707103186202
1742920733.7712915,-0.868701,-0.0028669999999999998,-0.301401,0.013176,0.0,-0.0053679999999999995,0.24904998538439052,-0.19438760596316867,0.12306343174510377
1742920733.854663,-1.10105,-0.073444,-0.363011,-0.014884,0.02318,-0.01098,0.24904998538439052,-0.19438760596316867,0.12306343174510377
1742920733.9315104,-1.205909,-0.070882,-0.353922,-0.057828,0.00122,-0.00488,0.24904998538439052,-0.19438760596316867,0.12306343174510377
1742920734.0116885,-1.183034,0.008479,-0.306098,-0.087596,0.00976,-0.018543999999999998,0.2537269804150833,-0.19847997661502484,0.12247880736626718
1742920734.0909655,-0.924211,-0.120658,-0.177205,-0.09028,0.062708,-0.01464,0.2537269804150833,-0.19847997661502484,0.12247880736626718
1742920734.1711361,-0.76921,-0.042151,-0.17269099999999998,-0.09394,0.01342,0.0026839999999999998,0.26015784858228586,-0.21514177141186788,0.11736334405144695
1742920734.2543247,-0.689483,0.006344,-0.272548,-0.066856,-0.059536,0.017568,0.26015784858228586,-0.21514177141186788,0.11736334405144695
1742920734.33207,-0.8754109999999999,-0.020923,-0.36697599999999997,-0.033672,-0.055388,0.0053679999999999995,0.26015784858228586,-0.21514177141186788,0.11736334405144695
1742920734.4122136,-1.06506,0.050691,-0.452437,-0.009516,-0.023667999999999998,-0.005124,0.2645425314235604,-0.21981876644256065,0.08915521777258112
1742920734.4931464,-1.113921,0.058438,-0.350994,0.028059999999999998,0.037087999999999996,0.034648,0.2645425314235604,-0.21981876644256065,0.08915521777258112
1742920734.571704,-1.154547,0.12261,-0.218136,0.060511999999999996,0.053191999999999996,0.046116,0.24378836597486114,-0.22332651271558024,0.11824028061970183
1742920734.6518009,-1.105381,0.055083,-0.201788,0.100772,-0.000732,0.051484,0.24378836597486114,-0.22332651271558024,0.11824028061970183
1742920734.7326925,-0.917257,0.053863,-0.19025899999999998,0.109068,-0.006588,0.024399999999999998,0.24378836597486114,-0.22332651271558024,0.11824028061970183
1742920734.8166275,-0.841922,-0.031171,-0.188551,0.09272,-0.029036,0.018056,0.2379421221864952,-0.21455714703303128,0.12291727565039462
1742920734.8921382,-0.694729,-0.051057,-0.246196,0.062708,-0.053924,0.00244,0.2379421221864952,-0.21455714703303128,0.12291727565039462
1742920734.9730437,-0.817583,-0.108275,-0.290055,0.034648,-0.057583999999999996,-0.016836,0.2581116632563578,-0.19643379128909674,0.1047939199064601
1742920735.0531108,-1.104161,-0.029585,-0.427244,0.000976,-0.074908,-0.035868,0.2581116632563578,-0.19643379128909674,0.1047939199064601
1742920735.1333122,-1.26087,0.011712,-0.359961,-0.028548,0.024888,-0.024156,0.2581116632563578,-0.19643379128909674,0.1047939199064601
1742920735.2196455,-1.225246,-0.091073,-0.198555,-0.106628,-0.00366,-0.007808,0.24846536100555394,-0.19467991815258695,0.11327097339959076
1742920735.2927701,-1.149484,-0.040931,-0.260226,-0.066124,-0.00366,-0.007808,0.24846536100555394,-0.19467991815258695,0.11327097339959076
1742920735.373653,-0.896822,-0.049349,-0.090829,-0.11712,0.081496,-0.010003999999999999,0.24846536100555394,-0.19467991815258695,0.11327097339959076
1742920735.4554563,-0.652151,0.005124,-0.179645,-0.105408,-0.015372,0.002196,0.24057293189125986,-0.21981876644256065,0.11750950014615609
1742920735.53448,-0.844423,0.02623,-0.33031499999999997,-0.067588,-0.078568,-0.005124,0.24057293189125986,-0.21981876644256065,0.11750950014615609
1742920735.6132252,-1.097573,0.089365,-0.447923,-0.022935999999999998,-0.061488,-0.005856,0.2624963460976323,-0.22040339082139726,0.08272434960537854
1742920735.694091,-1.1840709999999999,0.056913,-0.392291,0.023912,0.010735999999999999,0.041236,0.2624963460976323,-0.22040339082139726,0.08272434960537854
1742920735.7777278,-1.230858,0.066063,-0.30658599999999997,0.038796,0.042212,0.06831999999999999,0.2624963460976323,-0.22040339082139726,0.08272434960537854
1742920735.8535438,-1.160891,0.087413,-0.285419,0.055388,0.027816,0.052704,0.23823443437591346,-0.2358959368605671,0.10742472961122479
1742920735.9336648,-0.971974,0.067039,-0.145607,0.074664,0.08174,0.015616,0.23823443437591346,-0.2358959368605671,0.10742472961122479
1742920736.014487,-0.671366,0.025681,-0.114192,0.072224,0.060024,-0.005856,0.2318035662087109,-0.22128032738965214,0.14016369482607424
1742920736.0946436,-0.632204,-0.03965,-0.207461,0.07002799999999999,-0.0183,-0.015616,0.2318035662087109,-0.22128032738965214,0.14016369482607424
1742920736.1791306,-0.772687,-0.041174999999999996,-0.34599199999999997,0.06417199999999999,-0.06466,-0.046848,0.2318035662087109,-0.22128032738965214,0.14016369482607424
1742920736.2548974,-1.05225,-0.012383,-0.428159,0.019764,-0.060268,-0.044652,0.2519731072785735,-0.19204910844782228,0.13314820228003507
1742920736.3354716,-1.150826,0.026900999999999998,-0.410835,-0.035136,-0.013176,-0.0026839999999999998,0.2519731072785735,-0.19204910844782228,0.13314820228003507
1742920736.4147215,-1.24135,0.023851,-0.287066,-0.053924,0.016347999999999998,0.011712,0.2554808535515931,-0.2098801520023385,0.12540192926045016
1742920736.4959974,-1.221403,-0.049958999999999996,-0.281454,-0.07002799999999999,-0.011712,0.0060999999999999995,0.2554808535515931,-0.2098801520023385,0.12540192926045016
1742920736.5749385,-0.995825,-0.075823,-0.22752999999999998,-0.068564,0.008052,-0.009028,0.2554808535515931,-0.2098801520023385,0.12540192926045016
1742920736.6550996,-0.703147,0.012871,-0.199287,-0.054168,0.013908,0.007076,0.24963460976322713,-0.22332651271558024,0.10976322712657118
1742920736.7359238,-0.634034,0.020313,-0.199348,-0.038064,-0.0017079999999999999,0.015127999999999999,0.24963460976322713,-0.22332651271558024,0.10976322712657118
1742920736.8158374,-0.835151,-0.02013,-0.302011,-0.035136,-0.08003199999999999,0.012444,0.24963460976322713,-0.22332651271558024,0.10976322712657118
1742920736.9021804,-1.220915,0.110593,-0.230519,0.019275999999999998,0.0075639999999999995,0.019764,0.2528500438468284,-0.2315112540192926,0.07760888629055832
1742920736.975545,-1.088911,0.126941,-0.184952,0.054168,-0.000976,0.033184,0.2528500438468284,-0.2315112540192926,0.07760888629055832
1742920737.0564582,-1.087996,0.09467199999999999,-0.18934399999999998,0.056608,-0.025376,0.012199999999999999,0.2519731072785735,-0.2344343759134756,0.0935399006138556
1742920737.136518,-0.974048,0.086681,-0.158905,0.054412,0.006588,0.011224,0.2519731072785735,-0.2344343759134756,0.0935399006138556
1742920737.2166982,-0.718275,0.043248999999999996,-0.154635,0.069784,0.0026839999999999998,0.009028,0.2519731072785735,-0.2344343759134756,0.0935399006138556
1742920737.3027883,-0.737734,0.02867,-0.216184,0.071004,-0.010248,-0.010248,0.2508038585209003,-0.22361882490499854,0.11049400760011692
1742920737.3769066,-0.954101,0.042943999999999996,-0.294813,0.065636,-0.024888,-0.025131999999999998,0.2508038585209003,-0.22361882490499854,0.11049400760011692
1742920737.4563012,-1.109712,0.000305,-0.363743,0.031964,-0.025131999999999998,-0.02684,0.259280912014031,-0.2078339666764104,0.09865536392867583
1742920737.537868,-1.161074,-0.05429,-0.309697,-0.021716,0.026108,-0.02562,0.259280912014031,-0.2078339666764104,0.09865536392867583
1742920737.6171253,-1.206031,-0.053009,-0.171593,-0.060024,0.043676,-0.003904,0.259280912014031,-0.2078339666764104,0.09865536392867583
1742920737.697163,-1.092266,-0.030927,-0.195261,-0.081496,0.012444,-0.0017079999999999999,0.26074247296112246,-0.2095878398129202,0.11107863197895353
1742920737.778048,-0.949892,-0.004575,-0.162748,-0.077836,0.02562,0.00122,0.26074247296112246,-0.2095878398129202,0.11107863197895353
1742920737.85902,-0.7296819999999999,0.048251,-0.196237,-0.061488,0.00366,0.026108,0.25665010230926627,-0.2329728149663841,0.09017831043554517
1742920737.937499,-0.756339,0.044957,-0.247538,-0.039772,-0.020739999999999998,0.028304,0.25665010230926627,-0.2329728149663841,0.09017831043554517
1742920738.0183744,-0.878217,0.049837,-0.332084,-0.015127999999999999,-0.021228,0.012199999999999999,0.25665010230926627,-0.2329728149663841,0.09017831043554517
1742920738.0984561,-1.157353,0.081069,-0.309209,0.021228,0.019764,0.011224,0.2502192341420637,-0.228003507746273,0.10143232972814967
1742920738.1778586,-1.2232939999999999,0.060207,-0.263032,0.048556,0.012688,0.021228,0.2502192341420637,-0.228003507746273,0.10143232972814967
1742920738.2606263,-1.162233,0.033306,-0.314211,0.070272,0.027084,0.016104,0.24583455130078924,-0.22361882490499854,0.12174802689272142
1742920738.341898,-0.8787659999999999,0.011407,-0.108031,0.081008,0.024644,-0.033428,0.24583455130078924,-0.22361882490499854,0.12174802689272142
1742920738.4199767,-0.740113,-0.001769,-0.18287799999999999,0.064904,-0.04392,-0.021228,0.24583455130078924,-0.22361882490499854,0.12174802689272142
1742920738.4991302,-0.785619,0.01464,-0.23649699999999999,0.03172,-0.030987999999999998,-0.012931999999999999,0.24963460976322713,-0.19906460099386145,0.11370944168371822
1742920738.5783782,-0.921527,0.031964,-0.25943299999999997,0.016592,-0.01098,-0.019032,0.24963460976322713,-0.19906460099386145,0.11370944168371822
1742920738.6584563,-1.134356,-0.040626,-0.33305999999999997,0.000976,-0.034892,-0.00244,0.24963460976322713,-0.19906460099386145,0.11370944168371822
1742920738.7385485,-1.246718,-0.06831999999999999,-0.324459,-0.037087999999999996,-0.019032,-0.027572,0.26366559485530544,-0.19263373282665888,0.10990938322128033
1742920738.8186028,-1.306315,0.009271999999999999,-0.202642,-0.07710399999999999,0.017568,-0.035868,0.26366559485530544,-0.19263373282665888,0.10990938322128033
1742920738.898712,-0.962885,-0.053924,-0.18666,-0.091012,0.028059999999999998,-0.00244,0.2624963460976323,-0.20637240572931892,0.10625548085355159
1742920738.978767,-0.844057,0.008479,-0.122732,-0.09467199999999999,0.040992,0.00488,0.2624963460976323,-0.20637240572931892,0.10625548085355159
1742920739.058874,-0.745481,0.043066,-0.167323,-0.086864,-0.008539999999999999,0.040504,0.2624963460976323,-0.20637240572931892,0.10625548085355159
1742920739.13893,-0.753045,0.054229,-0.236009,-0.0549,-0.034404,0.046848,0.25255773165741013,-0.2323881905875475,0.08652440806781643
1742920739.2190492,-0.91439,0.047275,-0.349286,-0.00976,-0.043676,0.01586,0.25255773165741013,-0.2323881905875475,0.08652440806781643
1742920739.2990983,-1.181814,0.042151,-0.366732,0.03782,-0.02318,-0.008784,0.253434668225665,-0.2306343174510377,0.08681672025723473
1742920739.3792067,-1.2820369999999999,0.100101,-0.225212,0.052216,0.024644,0.035136,0.253434668225665,-0.2306343174510377,0.08681672025723473
1742920739.459265,-1.221891,0.102419,-0.14066599999999999,0.07076,0.00488,0.034892,0.253434668225665,-0.2306343174510377,0.08681672025723473
1742920739.5398176,-0.973621,0.047885,-0.160003,0.087596,-0.012199999999999999,0.010735999999999999,0.2516807950891552,-0.22595732242034494,0.10757088570593394
1742920739.6194131,-0.816485,0.002562,-0.14396,0.067344,0.021471999999999998,0.0,0.2516807950891552,-0.22595732242034494,0.10757088570593394
1742920739.6995246,-0.678686,-0.001586,-0.161833,0.054168,0.0053679999999999995,-0.01952,0.2548962291727565,-0.20081847413037124,0.10947091493715289
1742920739.7796268,-0.766648,0.003965,-0.263032,0.024888,-0.047824,-0.0366,0.2548962291727565,-0.20081847413037124,0.10947091493715289
1742920739.8597102,-1.210667,-0.012199999999999999,-0.313906,-0.00732,-0.059536,-0.024644,0.2548962291727565,-0.20081847413037124,0.10947091493715289
1742920739.9397585,-1.3233949999999999,-0.006344,-0.257664,-0.045871999999999996,-0.0068319999999999995,-0.011712,0.2619117217187957,-0.19497223034200525,0.08798596901490792
1742920740.019865,-1.250744,-0.0021349999999999997,-0.193248,-0.090768,0.044164,0.012931999999999999,0.2619117217187957,-0.19497223034200525,0.08798596901490792
1742920740.0999227,-0.97722,-0.057096,-0.12102399999999999,-0.088328,0.045628,-0.002928,0.2619117217187957,-0.19497223034200525,0.08798596901490792
1742920740.1800413,-0.856379,-0.0066489999999999995,-0.142374,-0.064904,0.0046359999999999995,-0.007808,0.26395790704472377,-0.2078339666764104,0.0952937737503654
1742920740.260087,-0.733159,0.004941,-0.19367499999999999,-0.03172,-0.012688,0.012931999999999999,0.26395790704472377,-0.2078339666764104,0.0952937737503654
1742920740.3402143,-0.781288,-0.024583,-0.20874199999999998,-0.018056,-0.000976,0.010492,0.2557731657410114,-0.21718795673779598,0.08900906167787197
1742920740.4202538,-1.0355969999999999,-0.060268,-0.28133199999999997,-0.01952,-0.035136,0.00488,0.2557731657410114,-0.21718795673779598,0.08900906167787197
1742920740.5003703,-1.19255,0.060085,-0.350384,-0.01342,-0.051972,0.009271999999999999,0.2557731657410114,-0.21718795673779598,0.08900906167787197
1742920740.580433,-1.284233,0.19032,-0.189161,0.010003999999999999,0.035868,0.034648,0.2581116632563578,-0.2341420637240573,0.08272434960537854
1742920740.6604953,-1.068781,0.090219,-0.127978,0.056364,0.055144,0.033672,0.2581116632563578,-0.2341420637240573,0.08272434960537854
1742920740.7405758,-0.946232,0.012931999999999999,-0.14280099999999998,0.060756,0.028304,0.021228,0.24203449283835135,-0.22215726395790705,0.10377082724349605
1742920740.8206496,-0.840702,0.016592,-0.145241,0.042943999999999996,0.00732,0.005856,0.24203449283835135,-0.22215726395790705,0.10377082724349605
1742920740.9007652,-0.71492,-0.008479,-0.167994,0.026352,-0.000732,-0.008052,0.24203449283835135,-0.22215726395790705,0.10377082724349605
1742920740.9808197,-0.747677,0.046421,-0.241011,0.01952,-0.013908,-0.025376,0.24495761473253436,-0.2090032154340836,0.11180941245249927
1742920741.0609245,-1.077626,0.033367,-0.370392,0.020739999999999998,-0.025376,-0.037087999999999996,0.24495761473253436,-0.2090032154340836,0.11180941245249927
1742920741.14098,-1.236043,-0.029951,-0.404613,0.00244,0.0026839999999999998,-0.020252,0.2543116047939199,-0.20432622040339082,0.1148786904413914
1742920741.2210875,-1.3310199999999999,-0.0030499999999999998,-0.246379,-0.032695999999999996,0.068076,0.005612,0.2543116047939199,-0.20432622040339082,0.1148786904413914
1742920741.3011444,-0.8617469999999999,-0.044469,-0.14652199999999999,-0.071736,0.058316,-0.024888,0.2543116047939199,-0.20432622040339082,0.1148786904413914
1742920741.3812485,-0.743956,0.025803,-0.171532,-0.07417599999999999,0.000488,0.0053679999999999995,0.2528500438468284,-0.22683425898859982,0.12028646594562993
1742920741.4613101,-0.697047,0.050935,-0.21398799999999998,-0.047824,-0.0183,0.035868,0.2528500438468284,-0.22683425898859982,0.12028646594562993
1742920741.5419524,-0.810812,0.018056,-0.337086,-0.005856,-0.062708,-0.00122,0.256357790119848,-0.22683425898859982,0.0926629640456007
1742920741.6214566,-1.092388,0.064355,-0.485133,0.017811999999999998,-0.093208,-0.009516,0.256357790119848,-0.22683425898859982,0.0926629640456007
1742920741.7015653,-1.279841,0.054960999999999996,-0.315248,0.02318,0.027084,0.029768,0.256357790119848,-0.22683425898859982,0.0926629640456007
1742920741.78162,-1.251537,0.104615,-0.197823,0.024644,0.053191999999999996,0.05124,0.24028061970184156,-0.2320958783981292,0.10230926629640456
1742920741.8617303,-1.166137,0.099613,-0.23247099999999998,0.051484,0.008052,0.028548,0.24028061970184156,-0.2320958783981292,0.10230926629640456
1742920741.9417841,-0.9079849999999999,0.02562,-0.14743699999999998,0.060756,0.039284,0.004148,0.24028061970184156,-0.2320958783981292,0.10230926629640456
1742920742.0219147,-0.599691,-0.009699,-0.149755,0.042943999999999996,0.00976,-0.006344,0.23852674656533177,-0.22917275650394622,0.12949429991230635
1742920742.1019473,-0.779397,-0.0053679999999999995,-0.23125099999999998,0.025131999999999998,-0.029768,-0.024888,0.23852674656533177,-0.22917275650394622,0.12949429991230635
1742920742.1820595,-0.921466,0.024827,-0.355935,0.018056,-0.034404,-0.042943999999999996,0.25255773165741013,-0.20111078631978954,0.11736334405144695
1742920742.2621117,-1.039989,0.022631,-0.39039999999999997,0.00366,-0.0305,-0.017079999999999998,0.25255773165741013,-0.20111078631978954,0.11736334405144695
1742920742.3422163,-1.182607,-0.024583,-0.334646,-0.007808,-0.011467999999999999,-0.01342,0.25255773165741013,-0.20111078631978954,0.11736334405144695
1742920742.422835,-1.237263,0.005124,-0.226493,-0.032452,-0.002196,-0.023424,0.253434668225665,-0.19614147909967847,0.1157556270096463
1742920742.502387,-1.033096,-0.049471,-0.204899,-0.053191999999999996,-0.000244,-0.007076,0.253434668225665,-0.19614147909967847,0.1157556270096463
1742920742.582494,-0.849425,-0.059657999999999996,-0.124806,-0.075884,0.022448,0.014884,0.2557731657410114,-0.22508038585209003,0.092955276235019
1742920742.6625736,-0.686555,0.007808,-0.154696,-0.07442,-0.02684,0.039772,0.2557731657410114,-0.22508038585209003,0.092955276235019
1742920742.7426255,-0.7570709999999999,0.016531,-0.271267,-0.043432,-0.069784,0.030987999999999998,0.2557731657410114,-0.22508038585209003,0.092955276235019
1742920742.82274,-1.228296,0.063867,-0.28609,0.025863999999999998,-0.011467999999999999,-0.012199999999999999,0.2616194095293774,-0.22244957614732536,0.07293189125986553
1742920742.902787,-1.219512,0.08784,-0.145912,0.034159999999999996,0.017079999999999998,0.048556,0.2616194095293774,-0.22244957614732536,0.07293189125986553
1742920742.9829094,-1.1941359999999999,0.096441,-0.12444,0.03294,-0.018056,0.047824,0.2598655363928676,-0.2356036246711488,0.08813212510961707
1742920743.0629575,-1.065853,0.080825,-0.162565,0.040748,-0.018056,0.020007999999999998,0.2598655363928676,-0.2356036246711488,0.08813212510961707
1742920743.1430848,-0.879864,0.020557,-0.128832,0.057828,0.012931999999999999,0.004148,0.2598655363928676,-0.2356036246711488,0.08813212510961707
1742920743.2231297,-0.6673399999999999,-0.019825,-0.159942,0.068808,-0.011712,-0.00122,0.253434668225665,-0.22361882490499854,0.0952937737503654
1742920743.303253,-0.79849,0.0060999999999999995,-0.19337,0.055632,-0.033184,-0.034159999999999996,0.253434668225665,-0.22361882490499854,0.0952937737503654
1742920743.3832922,-1.05225,0.027145,-0.304207,0.01342,-0.051972,-0.034159999999999996,0.253434668225665,-0.22361882490499854,0.0952937737503654
1742920743.4740088,-1.207129,0.026657,-0.31232,-0.022935999999999998,-0.010735999999999999,-0.035136,0.2665887167494885,-0.20081847413037124,0.08930137386729027
1742920743.548066,-1.234762,0.004148,-0.167994,-0.02684,0.050996,-0.04392,0.2665887167494885,-0.20081847413037124,0.08930137386729027
1742920743.626882,-1.176934,0.035502,-0.078141,-0.020007999999999998,0.038064,-0.038308,0.27155802396959955,-0.19614147909967847,0.10552470038000585
1742920743.7077277,-0.8851709999999999,-0.07869,-0.095648,-0.029523999999999998,0.015616,-0.01342,0.27155802396959955,-0.19614147909967847,0.10552470038000585
1742920743.7871134,-0.856745,-0.030927,-0.132858,-0.071004,-0.009028,0.016592,0.27155802396959955,-0.19614147909967847,0.10552470038000585
1742920743.8731778,-0.732244,-0.012139,-0.18470799999999998,-0.049288,-0.028059999999999998,0.010248,0.27097339959076294,-0.20608009353990062,0.08360128617363344
1742920743.9473052,-0.835761,-0.015067,-0.239791,-0.011467999999999999,-0.030744,0.00976,0.27097339959076294,-0.20608009353990062,0.08360128617363344
1742920744.0274534,-1.062254,0.005856,-0.302133,0.013663999999999999,-0.031964,-0.00122,0.2738965214849459,-0.2087109032446653,0.07322420344928383
1742920744.1075146,-1.267763,-0.033854999999999996,-0.265838,0.033916,-0.017324,-0.0017079999999999999,0.2738965214849459,-0.2087109032446653,0.07322420344928383
1742920744.1879663,-1.2753269999999999,0.037332,-0.179889,0.026595999999999998,0.016836,0.036356,0.2738965214849459,-0.2087109032446653,0.07322420344928383
1742920744.2735922,-0.9201239999999999,0.040199,-0.090463,0.036356,0.098088,0.03538,0.2508038585209003,-0.21923414206372405,0.10201695410698626
1742920744.3478627,-0.748104,0.003843,-0.109068,0.052948,0.047092,-0.013663999999999999,0.2508038585209003,-0.21923414206372405,0.10201695410698626
1742920744.4287574,-0.705282,0.022265,-0.197091,0.047092,-0.027327999999999998,-0.034648,0.2619117217187957,-0.20140309850920785,0.11765565624086524
1742920744.509049,-0.826184,0.004514,-0.264557,0.031964,-0.031964,-0.04514,0.2619117217187957,-0.20140309850920785,0.11765565624086524
1742920744.5882266,-1.00345,-0.016165,-0.286029,-0.008784,-0.020984,-0.024156,0.2619117217187957,-0.20140309850920785,0.11765565624086524
1742920744.6682892,-1.158878,0.044712999999999996,-0.29395899999999997,-0.046848,-0.024399999999999998,0.0183,0.2575270388775212,-0.19964922537269805,0.10420929552762351
1742920744.7492003,-1.234762,-0.00244,-0.235338,-0.04026,-0.017079999999999998,0.014395999999999999,0.2575270388775212,-0.19964922537269805,0.10420929552762351
1742920744.8315103,-1.227991,-0.013603,-0.143838,-0.020252,0.006588,-0.0034159999999999998,0.253434668225665,-0.2034492838351359,0.1178018123355744
1742920744.9086635,-0.998082,-0.075396,-0.08967,-0.030012,0.038308,-0.008052,0.253434668225665,-0.2034492838351359,0.1178018123355744
1742920744.9887798,-0.7108329999999999,-0.03782,-0.116205,-0.060268,0.0305,0.004392,0.253434668225665,-0.2034492838351359,0.1178018123355744
1742920745.069614,-0.664229,0.013237,-0.165554,-0.052704,-0.000732,0.0053679999999999995,0.26395790704472377,-0.21484945922244958,0.09967845659163987
1742920745.1490047,-0.892674,0.016409,-0.27327999999999997,-0.034404,-0.03294,0.017568,0.26395790704472377,-0.21484945922244958,0.09967845659163987
1742920745.2310998,-1.112518,0.044774,-0.35014,-0.001464,-0.0305,0.021228,0.26395790704472377,-0.21484945922244958,0.09967845659163987
1742920745.3100169,-1.134417,0.049349,-0.286334,0.0366,0.007808,0.034404,0.2589885998246127,-0.22244957614732536,0.09558608593978368
1742920745.3894436,-1.174372,0.081313,-0.231617,0.051727999999999996,0.000244,0.044164,0.2589885998246127,-0.22244957614732536,0.09558608593978368
1742920745.4708068,-1.262578,0.050996,-0.164761,0.04636,0.014884,0.014152,0.24963460976322713,-0.22098801520023384,0.12130955860859398
1742920745.5535407,-1.096048,0.024704999999999998,-0.072956,0.046848,0.07198,0.000488,0.24963460976322713,-0.22098801520023384,0.12130955860859398
1742920745.6291,-0.694302,0.009455,-0.124806,0.054412,0.022692,-0.010248,0.24963460976322713,-0.22098801520023384,0.12130955860859398
1742920745.7098217,-0.636657,0.013725,-0.215574,0.038064,-0.019275999999999998,-0.026595999999999998,0.24992692195264543,-0.19818766442560654,0.1267173341128325
1742920745.7906435,-1.096841,-0.014823,-0.32269,-0.013908,-0.005856,-0.011956,0.24992692195264543,-0.19818766442560654,0.1267173341128325
1742920745.870043,-1.199443,0.005673,-0.332023,-0.04636,-0.009028,-0.010248,0.24583455130078924,-0.21046477638117508,0.11999415375621163
1742920745.952478,-1.169187,-0.024704999999999998,-0.233813,-0.060024,0.015127999999999999,-0.017079999999999998,0.24583455130078924,-0.21046477638117508,0.11999415375621163
1742920746.0302677,-1.023702,0.013725,-0.147254,-0.060024,0.011224,0.000488,0.24583455130078924,-0.21046477638117508,0.11999415375621163
1742920746.1104307,-0.92659,-0.017629,-0.20075099999999999,-0.05856,-0.020984,0.014884,0.2528500438468284,-0.22332651271558024,0.11458637825197311
1742920746.1912322,-0.789889,-0.017202,-0.20904699999999998,-0.055632,-0.009028,0.016104,0.2528500438468284,-0.22332651271558024,0.11458637825197311
1742920746.271171,-0.764879,-0.020923,-0.2318,-0.03904,-0.014152,0.0183,0.2560654779304297,-0.22917275650394622,0.09792458345513008
1742920746.3523088,-0.914207,0.009882,-0.324825,-0.026108,-0.044652,0.014884,0.2560654779304297,-0.22917275650394622,0.09792458345513008
1742920746.4309332,-1.1283779999999999,0.08906,-0.330193,0.005612,-0.020252,0.0068319999999999995,0.2560654779304297,-0.22917275650394622,0.09792458345513008
1742920746.512449,-1.251049,0.086925,-0.21520799999999998,0.0366,0.036112,0.035868,0.24408067816427945,-0.24817304881613564,0.105670856474715
1742920746.5911353,-1.247206,0.038491,-0.184525,0.066856,0.013908,0.047824,0.24408067816427945,-0.24817304881613564,0.105670856474715
1742920746.6747794,-1.061705,0.085827,-0.17507,0.093696,0.0017079999999999999,0.027327999999999998,0.23501900029231218,-0.22654194679918152,0.1264250219234142
1742920746.7513893,-0.87352,0.035013999999999997,-0.114131,0.082472,0.029768,-0.025376,0.23501900029231218,-0.22654194679918152,0.1264250219234142
1742920746.832292,-0.616893,-0.010492,-0.175741,0.045628,-0.006588,-0.044896,0.23501900029231218,-0.22654194679918152,0.1264250219234142
1742920746.9116218,-0.6901539999999999,-0.002257,-0.228506,0.013908,-0.025131999999999998,-0.033184,0.2575270388775212,-0.2116340251388483,0.12291727565039462
1742920746.992078,-0.982283,0.022997,-0.272914,-0.009028,-0.045384,-0.01586,0.2575270388775212,-0.2116340251388483,0.12291727565039462
1742920747.075818,-1.227686,0.012871,-0.35678899999999997,-0.038308,-0.059536,-0.012199999999999999,0.2575270388775212,-0.2116340251388483,0.12291727565039462
1742920747.1520107,-1.2932,0.026962,-0.287615,-0.047824,0.011224,0.000732,0.25460391698333823,-0.21221864951768488,0.1148786904413914
1742920747.2321315,-1.286795,0.019337,-0.12254899999999999,-0.030255999999999998,0.037332,-0.020496,0.25460391698333823,-0.21221864951768488,0.1148786904413914
1742920747.312208,-0.755119,0.033733,-0.144204,-0.062952,0.019032,0.0068319999999999995,0.24700380005846242,-0.22917275650394622,0.11107863197895353
1742920747.3923533,-0.625616,0.033549999999999996,-0.173728,-0.049532,-0.001464,0.030255999999999998,0.24700380005846242,-0.22917275650394622,0.11107863197895353
1742920747.473626,-0.7540209999999999,0.0073809999999999995,-0.233569,-0.018056,-0.032695999999999996,0.016836,0.24700380005846242,-0.22917275650394622,0.11107863197895353
1742920747.5522661,-1.083543,0.06283,-0.327448,0.01098,-0.050996,0.017811999999999998,0.26220403390821395,-0.2379421221864952,0.0932475884244373
1742920747.6336098,-1.272948,0.048739,-0.3111,0.03904,-0.027572,0.02196,0.26220403390821395,-0.2379421221864952,0.0932475884244373
1742920747.713802,-1.276669,0.044286,-0.166042,0.035623999999999996,0.01586,0.038064,0.2551885413621748,-0.24057293189125986,0.10216311020169541
1742920747.7995164,-1.145946,0.040382,-0.127673,0.037576,0.008539999999999999,0.028791999999999998,0.2551885413621748,-0.24057293189125986,0.10216311020169541
1742920747.873239,-0.929335,0.051727999999999996,-0.14335,0.061244,0.002928,0.0,0.2551885413621748,-0.24057293189125986,0.10216311020169541
1742920747.9541266,-0.74725,0.017019,-0.140483,0.063928,-0.000488,-0.020496,0.24875767319497222,-0.2282958199356913,0.10932475884244373
1742920748.0334556,-0.667279,-0.003172,-0.143899,0.034892,-0.009028,-0.020252,0.24875767319497222,-0.2282958199356913,0.10932475884244373
1742920748.1136131,-0.88389,0.007259,-0.257054,0.010492,-0.044164,-0.020252,0.26425021923414205,-0.21894182987430577,0.10055539315989477
1742920748.1977742,-1.17303,-0.004758,-0.394426,-0.0060999999999999995,-0.04636,-0.03294,0.26425021923414205,-0.21894182987430577,0.10055539315989477
1742920748.2749476,-1.2704469999999999,-0.033794,-0.30872099999999997,-0.055388,0.034404,-0.017324,0.26425021923414205,-0.21894182987430577,0.10055539315989477
1742920748.3542354,-1.28771,-0.046543,-0.119682,-0.108336,0.073688,-0.010492,0.24671148786904415,-0.2347266881028939,0.11429406606255481
1742920748.4359896,-1.022482,-0.046421,-0.144692,-0.123464,0.030255999999999998,0.001464,0.24671148786904415,-0.2347266881028939,0.11429406606255481
1742920748.5156198,-0.947269,-0.008662,-0.107116,-0.11468,0.036112,0.0068319999999999995,0.24671148786904415,-0.2347266881028939,0.11429406606255481
1742920748.5940518,-0.666669,0.045871999999999996,-0.130296,-0.091988,0.0068319999999999995,0.036112,0.2528500438468284,-0.26688102893890675,0.07775504238526747
1742920748.6755583,-0.668316,0.018483,-0.214232,-0.043432,-0.041479999999999996,-0.02928,0.2528500438468284,-0.26688102893890675,0.07775504238526747
1742920748.7568915,-1.149301,0.061121999999999996,-0.321409,-0.0034159999999999998,-0.034159999999999996,-0.01952,0.26629640456007014,-0.2584039754457761,0.06416252557731657
1742920748.8350496,-1.23037,0.110044,-0.242109,0.001464,-0.008052,0.01464,0.26629640456007014,-0.2584039754457761,0.06416252557731657
1742920748.9152083,-1.301069,0.160918,-0.148474,0.020007999999999998,-0.0026839999999999998,0.0427,0.26629640456007014,-0.2584039754457761,0.06416252557731657
1742920748.995229,-1.0294969999999999,0.090768,-0.112972,0.070516,0.0075639999999999995,0.007076,0.25460391698333823,-0.26571178018123354,0.06577024261911722
1742920749.0761304,-0.833931,-0.069601,-0.099003,0.084668,0.014395999999999999,0.000244,0.25460391698333823,-0.26571178018123354,0.06577024261911722
1742920749.1561675,-0.708027,-0.074786,-0.165188,0.04636,-0.015616,-0.009516,0.2522654194679918,-0.2595732242034493,0.08754750073078048
1742920749.2356024,-0.70394,-0.020984,-0.190198,0.010003999999999999,-0.017811999999999998,-0.025376,0.2522654194679918,-0.2595732242034493,0.08754750073078048
1742920749.3157263,-0.989847,0.012627,-0.210816,0.0,-0.03782,-0.036844,0.2522654194679918,-0.2595732242034493,0.08754750073078048
1742920749.3965816,-1.317051,-0.032879,-0.288469,-0.006588,-0.052948,-0.056608,0.28120432622040337,-0.2502192341420637,0.07147033031277404
1742920749.477359,-1.213595,-0.145302,-0.244732,-0.057096,0.009028,-0.033184,0.28120432622040337,-0.2502192341420637,0.07147033031277404
1742920749.5560157,-1.240191,-0.063318,-0.105591,-0.131272,0.05368,0.008296,0.26805027769657996,-0.26746565331774336,0.05685472084185911
1742920749.6361825,-0.949831,-0.05185,-0.090707,-0.16128399999999998,0.037332,0.032208,0.26805027769657996,-0.26746565331774336,0.05685472084185911
1742920749.7162578,-0.8562569999999999,0.017568,-0.121268,-0.149328,0.004392,0.037332,0.26805027769657996,-0.26746565331774336,0.05685472084185911
1742920749.7964122,-0.737368,0.0040869999999999995,-0.169153,-0.093696,-0.029036,0.01586,0.26541946799181526,-0.29260450160771706,0.012715580239695995
1742920749.8819425,-0.788364,-0.011651,-0.20965699999999998,-0.072712,-0.01464,0.00244,0.26541946799181526,-0.29260450160771706,0.012715580239695995
1742920749.9566371,-1.052616,0.033977,-0.274622,-0.069052,-0.008539999999999999,-0.008539999999999999,0.26541946799181526,-0.29260450160771706,0.01140017538731365
1742920750.0367568,-1.175165,0.090036,-0.29304399999999997,-0.036844,-0.006344,-0.000244,0.26951183864367145,-0.31452791581408945,0.01140017538731365
1742920750.1175702,-1.24989,0.093696,-0.160491,0.014152,0.036112,0.01342,0.26951183864367145,-0.31452791581408945,0.01140017538731365
1742920750.1977742,-1.146617,0.052704,-0.057888999999999996,0.034892,0.0075639999999999995,-0.00732,0.2768196433791289,-0.3025431160479392,0.02747734580532008
1742920750.2852855,-0.794464,0.019642,-0.12993,0.023912,-0.019032,-0.003904,0.2768196433791289,-0.3025431160479392,0.02747734580532008
1742920750.3572423,-0.732549,0.012322,-0.162382,0.016592,-0.031476,-0.02196,0.2768196433791289,-0.3025431160479392,0.02747734580532008
1742920750.4381638,-0.8532069999999999,0.037149,-0.209718,0.000488,-0.0366,-0.03294,0.2744811458637825,-0.2890967553346975,0.026746565331774334
1742920750.5184507,-1.058411,0.041419,-0.2928,-0.02318,-0.036356,-0.014884,0.2744811458637825,-0.2890967553346975,0.026746565331774334
1742920750.597662,-1.210301,0.035258,-0.328302,-0.045384,0.0017079999999999999,-0.0026839999999999998,0.2835428237357498,-0.29698918444899153,0.012277111955568546
1742920750.6776867,-1.252452,-0.027084,-0.180499,-0.06831999999999999,0.058804,-0.011956,0.2835428237357498,-0.29698918444899153,0.012277111955568546
1742920750.7586045,-1.1904759999999999,0.026535,-0.124623,-0.076128,0.048799999999999996,-0.00244,0.2835428237357498,-0.29698918444899153,0.012277111955568546
1742920750.844397,-0.87108,-0.060207,-0.109251,-0.06344,0.022935999999999998,0.005612,0.26688102893890675,-0.3089739842151418,0.017684887459807074
1742920750.9184425,-0.761158,-0.05002,-0.11529,-0.073932,-0.013176,0.02928,0.26688102893890675,-0.3089739842151418,0.017684887459807074
1742920750.9982095,-0.751947,0.036051,-0.217038,-0.078324,-0.061244,0.044652,0.26688102893890675,-0.3183279742765273,-0.012861736334405145
1742920751.0790257,-0.863943,0.078202,-0.222528,-0.04758,-0.014395999999999999,0.014884,0.26688102893890675,-0.3183279742765273,-0.012861736334405145
1742920751.1584196,-0.996252,0.078507,-0.19702999999999998,-0.00244,0.00244,-0.027816,0.26688102893890675,-0.3183279742765273,-0.012861736334405145
1742920751.2433515,-1.198467,0.035746,-0.255956,0.027816,-0.03294,-0.0053679999999999995,0.2718503361590178,-0.31482022800350773,-0.02046185325928091
1742920751.3186219,-1.344989,0.065941,-0.164639,0.032695999999999996,0.0068319999999999995,0.024888,0.2718503361590178,-0.31482022800350773,-0.02046185325928091
1742920751.3995037,-1.096658,0.054351,-0.105286,0.024156,0.021228,0.018056,0.2619117217187957,-0.3177433498976907,-0.00964630225080386
1742920751.4821498,-0.9372039999999999,0.050325,-0.160735,0.009516,-0.01464,0.013663999999999999,0.2619117217187957,-0.3177433498976907,-0.00964630225080386
1742920751.5603223,-0.777384,0.03294,-0.13633499999999998,0.015127999999999999,0.00366,-0.010248,0.2619117217187957,-0.3177433498976907,-0.00964630225080386
1742920751.640218,-0.67954,0.024034,-0.129442,0.011956,0.012199999999999999,-0.007076,0.26015784858228586,-0.3080970476468869,0.0040923706518561824
1742920751.7192335,-1.093547,0.075762,-0.324581,-0.013908,-0.025376,-0.025863999999999998,0.26015784858228586,-0.3080970476468869,0.0040923706518561824
1742920751.800078,-1.204994,0.051727999999999996,-0.304268,-0.02196,0.012444,-0.035136,0.26015784858228586,-0.3080970476468869,0.0040923706518561824
1742920751.879405,-1.394765,0.008296,-0.166591,-0.029036,0.079788,-0.02196,0.2765273311897106,-0.29143525285004385,0.006138555977784273
1742920751.9595652,-1.133197,0.021045,-0.13969,-0.050508,0.082472,0.001464,0.2765273311897106,-0.29143525285004385,0.006138555977784273
1742920752.0403817,-0.849913,-0.005246,-0.12102399999999999,-0.06539199999999999,0.027084,-0.00366,0.26980415083308973,-0.28997369190295236,0.010961707103186204
1742920752.1205282,-0.664046,0.026718,-0.176656,-0.049776,-0.030744,0.012931999999999999,0.26980415083308973,-0.28997369190295236,0.010961707103186204
1742920752.199911,-0.679296,0.027267,-0.191296,-0.026108,-0.024644,0.022935999999999998,0.26980415083308973,-0.28997369190295236,0.010961707103186204
1742920752.2800112,-0.803126,0.010309,-0.258091,-0.00488,-0.025131999999999998,-0.000244,0.267173341128325,-0.2999123063431745,-0.008477053493130663
1742920752.3601515,-1.129415,0.042517,-0.318237,0.013663999999999999,-0.026595999999999998,-0.00366,0.267173341128325,-0.2999123063431745,-0.008477053493130663
1742920752.4471507,-1.248853,0.108397,-0.266875,0.015127999999999999,0.008052,0.025131999999999998,0.2575270388775212,-0.2958199356913183,-0.004969307220111079
1742920752.528013,-1.349686,0.09235399999999999,-0.141947,0.028059999999999998,0.013908,0.020739999999999998,0.2575270388775212,-0.2958199356913183,-0.004969307220111079
1742920752.6045578,-1.187914,0.08052,-0.064721,0.035868,0.013663999999999999,-0.015127999999999999,0.2575270388775212,-0.2958199356913183,-0.004969307220111079
1742920752.6830828,-0.781227,0.042395,-0.085339,0.016836,0.01342,-0.022448,0.26366559485530544,-0.28471207249342295,0.00029231218941829873
1742920752.7642171,-0.653127,0.0077469999999999995,-0.220088,0.010492,-0.04514,-0.012444,0.26366559485530544,-0.28471207249342295,0.00029231218941829873
1742920752.8428638,-0.782386,0.05368,-0.280173,0.023667999999999998,-0.042212,0.00122,0.2595732242034493,-0.28851213095586087,0.006577024261911721
1742920752.9239001,-1.081164,0.044286,-0.300547,0.037332,-0.016347999999999998,0.022692,0.2595732242034493,-0.28851213095586087,0.006577024261911721
1742920753.0030277,-1.21451,0.009089,-0.335134,0.0060999999999999995,-0.0060999999999999995,0.000732,0.2595732242034493,-0.28851213095586087,0.006577024261911721
1742920753.0832157,-1.2689219999999999,-0.017873,-0.17208099999999998,-0.041236,0.045628,-0.029523999999999998,0.2584039754457761,-0.2718503361590178,0.0035077462730195848
1742920753.1631894,-0.943365,-0.032085999999999996,-0.09943,-0.059536,-0.00122,0.027572,0.2584039754457761,-0.2718503361590178,0.0035077462730195848
1742920753.2432575,-0.746518,0.0077469999999999995,-0.174094,-0.050263999999999996,-0.027572,-0.010735999999999999,0.265127155802397,-0.278865828705057,-0.016807950891552178
1742920753.323369,-0.752984,0.059597,-0.20435,-0.028304,-0.02318,-0.010492,0.265127155802397,-0.278865828705057,-0.016807950891552178
1742920753.403424,-0.9113399999999999,0.037332,-0.254187,-0.014395999999999999,-0.010735999999999999,0.017811999999999998,0.265127155802397,-0.278865828705057,-0.016807950891552178
1742920753.4840374,-1.116117,0.074969,-0.305854,0.01098,0.0046359999999999995,0.026595999999999998,0.2560654779304297,-0.28178895059924,-0.01870798012277112
1742920753.5635822,-1.104222,0.081191,-0.181719,0.05246,0.066368,0.04392,0.2560654779304297,-0.28178895059924,-0.01870798012277112
1742920753.6436884,-1.159854,0.048739,-0.102663,0.047335999999999996,0.060756,0.030255999999999998,0.2560654779304297,-0.28178895059924,-0.01870798012277112
1742920753.724222,-1.1862059999999999,0.074969,-0.175985,0.054655999999999996,-0.04514,-0.004392,0.24758842443729903,-0.2800350774627302,0.006577024261911721
1742920753.8038502,-0.983503,0.09558699999999999,-0.173057,0.053436,-0.025863999999999998,-0.0046359999999999995,0.24758842443729903,-0.2800350774627302,0.006577024261911721
1742920753.8839514,-0.7278519999999999,0.061183,-0.161528,0.049044,0.0068319999999999995,-0.017079999999999998,0.24612686349020754,-0.2733118971061093,0.016954106986261326
1742920753.96404,-0.762744,0.033184,-0.21923399999999998,0.050996,-0.009516,-0.044164,0.24612686349020754,-0.2733118971061093,0.016954106986261326
1742920754.044098,-0.949099,0.050386,-0.283833,0.030255999999999998,-0.014152,-0.023667999999999998,0.24612686349020754,-0.2733118971061093,0.016954106986261326
1742920754.1241982,-1.151436,0.021899,-0.34953,-0.005612,-0.011224,-0.0068319999999999995,0.26074247296112246,-0.2508038585209003,0.03010815551008477
1742920754.2042584,-1.170285,-0.004941,-0.29304399999999997,-0.035623999999999996,0.042943999999999996,-0.03172,0.26074247296112246,-0.2508038585209003,0.03010815551008477
1742920754.2843676,-1.2232939999999999,0.027145,-0.09455,-0.043432,0.08174,-0.036112,0.25051154633148204,-0.25051154633148204,0.028792750657702426
1742920754.3644204,-1.031144,-0.033001,-0.08906,-0.045628,0.017811999999999998,-0.00244,0.25051154633148204,-0.25051154633148204,0.028792750657702426
1742920754.4449718,-0.797514,0.036905,-0.17976699999999998,-0.059292,-0.022935999999999998,0.016592,0.25051154633148204,-0.25051154633148204,0.028792750657702426
1742920754.5245786,-0.71614,0.041479999999999996,-0.212097,-0.0366,-0.02928,0.031232,0.2569424144986846,-0.26132709733995907,0.010669394913767904
1742920754.6046903,-0.812703,0.016592,-0.259006,-0.010003999999999999,-0.031232,0.014152,0.2569424144986846,-0.26132709733995907,0.010669394913767904
1742920754.6847427,-1.198345,0.051057,-0.276513,0.012688,0.00732,0.017324,0.24846536100555394,-0.26600409237065187,-0.0010230926629640456
1742920754.7677934,-1.197369,0.112606,-0.166591,0.019764,0.027327999999999998,0.047824,0.24846536100555394,-0.26600409237065187,-0.0010230926629640456
1742920754.8449097,-1.127097,0.09820999999999999,-0.15390299999999998,0.026595999999999998,-0.015127999999999999,0.048799999999999996,0.24846536100555394,-0.26600409237065187,-0.0010230926629640456
1742920754.9279444,-0.95038,0.10052799999999999,-0.157685,0.034159999999999996,-0.0183,0.027084,0.2356036246711488,-0.2718503361590178,0.01607717041800643
1742920755.005079,-0.814167,0.047092,-0.164517,0.062708,-0.027327999999999998,-0.00244,0.2356036246711488,-0.2718503361590178,0.01607717041800643
1742920755.0881395,-0.729499,0.04087,-0.21490299999999998,0.06588,-0.035868,-0.036844,0.2356036246711488,-0.2718503361590178,0.01607717041800643
1742920755.165257,-0.83814,0.07417599999999999,-0.262422,0.036844,-0.019764,-0.03538,0.23735749780765858,-0.259280912014031,0.016954106986261326
1742920755.2473965,-1.1399679999999999,0.017446,-0.322629,0.00732,-0.02318,-0.030744,0.23735749780765858,-0.259280912014031,0.016954106986261326
1742920755.3254259,-1.233298,-0.006344,-0.269742,-0.020007999999999998,0.020739999999999998,-0.026108,0.24437299035369775,-0.24378836597486114,0.017100263080970478
1742920755.4098809,-1.308084,-0.010675,-0.101077,-0.040992,0.066856,-0.02684,0.24437299035369775,-0.24378836597486114,0.017100263080970478
1742920755.4861612,-1.098,-0.051484,-0.098698,-0.060756,0.017079999999999998,-0.012688,0.24437299035369775,-0.24378836597486114,0.017100263080970478
1742920755.5656495,-0.915244,-0.035258,-0.15799,-0.086376,0.011956,0.002196,0.24466530254311605,-0.24349605378544284,0.007453960830166618
1742920755.6457698,-0.746335,0.031903,-0.190625,-0.0915,0.002928,0.020252,0.24466530254311605,-0.24349605378544284,0.007453960830166618
1742920755.7258236,-0.7376119999999999,0.051789,-0.245586,-0.073444,-0.00244,0.025863999999999998,0.23998830751242325,-0.2557731657410114,-0.011984799766150248
1742920755.8059537,-0.881023,0.069296,-0.35502,-0.039284,-0.00976,0.005612,0.23998830751242325,-0.2557731657410114,-0.011984799766150248
1742920755.8859866,-1.1262429999999999,0.067283,-0.35258,0.0,0.013176,0.019275999999999998,0.23998830751242325,-0.2557731657410114,-0.011984799766150248
1742920755.966093,-1.198711,0.077348,-0.22783499999999998,0.024644,0.058072,0.029523999999999998,0.22741888336743643,-0.26395790704472377,0.010230926629640456
1742920756.0461533,-1.20292,0.09851499999999999,-0.149633,0.022692,0.026595999999999998,0.033916,0.22741888336743643,-0.26395790704472377,0.010230926629640456
1742920756.1262624,-0.893345,0.0032329999999999998,-0.203557,0.06344,-0.022935999999999998,-0.020252,0.22537269804150833,-0.2537269804150833,0.0228003507746273
1742920756.2063413,-0.7406619999999999,0.0075639999999999995,-0.201239,0.079544,-0.01464,-0.023667999999999998,0.22537269804150833,-0.2537269804150833,0.0228003507746273
1742920756.2864377,-0.825879,0.018727,-0.226859,0.044407999999999996,-0.009028,-0.028304,0.22537269804150833,-0.2537269804150833,0.0228003507746273
1742920756.3664927,-1.010892,0.043127,-0.334097,0.001952,-0.025131999999999998,-0.024156,0.23531131248173048,-0.24758842443729903,0.013300204618532593
1742920756.446599,-1.102941,0.051057,-0.400038,-0.031476,-0.0075639999999999995,0.00488,0.23531131248173048,-0.24758842443729903,0.013300204618532593
1742920756.5266697,-1.137894,-0.027938,-0.195688,-0.06344,0.08588799999999999,0.02562,0.22917275650394622,-0.25255773165741013,0.027038877521192634
1742920756.6097074,-1.146556,0.022509,-0.12322,-0.069296,0.041724,-0.0026839999999999998,0.22917275650394622,-0.25255773165741013,0.027038877521192634
1742920756.6868274,-0.9666669999999999,-0.049288,-0.228201,-0.052948,-0.035623999999999996,-0.0034159999999999998,0.22917275650394622,-0.25255773165741013,0.027038877521192634
1742920756.769808,-0.873337,0.012505,-0.248148,-0.057828,-0.030744,-0.003172,0.2347266881028939,-0.2589885998246127,0.009061677871967261
1742920756.8470116,-0.776042,0.028975,-0.24540299999999998,-0.04514,-0.008539999999999999,-0.000244,0.2347266881028939,-0.2589885998246127,0.009061677871967261
1742920756.9290893,-0.83387,0.028975,-0.27144999999999997,-0.028791999999999998,-0.018788,0.000976,0.2347266881028939,-0.2589885998246127,0.009061677871967261
1742920757.007172,-1.021323,0.06893,-0.353983,-0.0026839999999999998,-0.03294,-0.006344,0.24612686349020754,-0.25665010230926627,-0.013300204618532593
1742920757.0883572,-1.178093,0.048068,-0.302987,0.037332,0.00976,0.01342,0.24612686349020754,-0.25665010230926627,-0.013300204618532593
1742920757.1673355,-1.21695,0.113216,-0.157868,0.059047999999999996,0.039528,0.033916,0.2306343174510377,-0.2554808535515931,0.01607717041800643
1742920757.2476387,-1.033401,0.059841,-0.178364,0.080764,-0.0046359999999999995,0.01342,0.2306343174510377,-0.2554808535515931,0.01607717041800643
1742920757.3275142,-0.8960899999999999,0.013359,-0.178181,0.079788,-0.022692,0.005612,0.2306343174510377,-0.2554808535515931,0.01607717041800643
1742920757.4104295,-0.744017,0.018056,-0.131699,0.04758,-0.007076,-0.004392,0.2358959368605671,-0.2554808535515931,0.017392575270388774
1742920757.487681,-0.783484,0.029036,-0.17385,0.007076,-0.022935999999999998,-0.021716,0.2358959368605671,-0.2554808535515931,0.017392575270388774
1742920757.567738,-0.988261,0.093147,-0.298168,-0.000244,-0.0549,-0.031964,0.25665010230926627,-0.24291142940660626,0.0043846828412744815
1742920757.6511848,-1.119899,-0.05429,-0.279197,-0.027084,0.013908,-0.02684,0.25665010230926627,-0.24291142940660626,0.0043846828412744815
1742920757.73618,-1.095133,-0.015677,-0.14701,-0.050263999999999996,0.055388,-0.018788,0.25665010230926627,-0.24291142940660626,0.0043846828412744815
1742920757.8113594,-1.1442379999999999,-0.017506999999999998,-0.105713,-0.043188,0.020007999999999998,0.011467999999999999,0.2557731657410114,-0.24466530254311605,0.001607717041800643
1742920757.8915386,-0.936777,0.052948,-0.170983,-0.053924,-0.030744,0.0060999999999999995,0.2557731657410114,-0.24466530254311605,0.001607717041800643
1742920757.971607,-0.825879,0.023546,-0.206851,-0.053436,-0.0183,0.028059999999999998,0.26278865828705056,-0.265127155802397,-0.010084770534931307
1742920758.0517519,-0.835334,0.010003999999999999,-0.229482,-0.048799999999999996,0.00122,0.038551999999999996,0.26278865828705056,-0.265127155802397,-0.010084770534931307
1742920758.1347156,-0.937753,0.033245,-0.279014,-0.034404,0.005124,0.026595999999999998,0.26278865828705056,-0.265127155802397,-0.010084770534931307
1742920758.2125046,-1.064206,0.030683,-0.299754,0.012688,-0.0026839999999999998,0.012931999999999999,0.26132709733995907,-0.27009646302250806,-0.007453960830166618
1742920758.2921855,-1.074271,0.078812,-0.241377,0.0366,0.012688,0.018056,0.26132709733995907,-0.27009646302250806,-0.007453960830166618
1742920758.3722646,-1.159366,0.08064199999999999,-0.159881,0.038308,0.001952,0.0366,0.26132709733995907,-0.27009646302250806,-0.007453960830166618
1742920758.4546676,-1.170834,0.137189,-0.175558,0.030744,-0.024644,0.00488,0.24758842443729903,-0.2776965799473838,0.001900029231218942
1742920758.53249,-0.908107,0.07911699999999999,-0.123586,0.049044,-0.005124,-0.031476,0.24758842443729903,-0.2776965799473838,0.001900029231218942
1742920758.6126442,-0.649772,-0.003904,-0.17208099999999998,0.049044,-0.027327999999999998,-0.03782,0.25460391698333823,-0.25255773165741013,0.0030692779888921366
1742920758.6968517,-0.740845,0.013663999999999999,-0.200324,0.039772,-0.025376,-0.066856,0.25460391698333823,-0.25255773165741013,0.0030692779888921366
1742920758.7736063,-1.059753,0.011651,-0.243817,0.022203999999999998,-0.01586,-0.031964,0.25460391698333823,-0.25255773165741013,0.0030692779888921366
1742920758.853733,-1.141127,0.036234,-0.290238,-0.027816,-0.029036,-0.007076,0.27360420929552765,-0.24641917567962585,0.0017538731365097924
1742920758.9336567,-1.304729,-0.047885,-0.242231,-0.056852,-0.008784,0.026352,0.27360420929552765,-0.24641917567962585,0.0017538731365097924
1742920759.0132992,-1.240313,0.0030499999999999998,-0.114924,-0.061488,0.027327999999999998,0.017568,0.2706810874013446,-0.2531423560362467,-0.00935399006138556
1742920759.0968952,-0.843325,-0.00183,-0.135176,-0.08784,0.0046359999999999995,0.005856,0.2706810874013446,-0.2531423560362467,-0.00935399006138556
1742920759.1735184,-0.74054,0.048494999999999996,-0.186965,-0.077348,0.0053679999999999995,0.0305,0.2706810874013446,-0.2531423560362467,-0.00935399006138556
1742920759.2536788,-0.818193,0.034282,-0.2623,-0.040748,-0.00488,0.00732,0.26600409237065187,-0.2744811458637825,-0.02820812627886583
1742920759.3337507,-1.01382,0.046421,-0.343674,-0.004148,-0.023424,-0.003904,0.26600409237065187,-0.2744811458637825,-0.02820812627886583
1742920759.4146376,-1.1451529999999999,0.059352999999999996,-0.29402,0.02562,0.028791999999999998,0.031476,0.27097339959076294,-0.27565039462145574,-0.01607717041800643
1742920759.4953861,-1.2269539999999999,0.077653,-0.165493,0.047092,0.063196,0.0427,0.27097339959076294,-0.27565039462145574,-0.01607717041800643
1742920759.5744464,-1.188524,0.053619,-0.193126,0.059047999999999996,0.009516,0.024399999999999998,0.27097339959076294,-0.27565039462145574,-0.01607717041800643
1742920759.6542966,-1.005585,0.070699,-0.13847,0.06831999999999999,0.06344,0.01464,0.2624963460976323,-0.2779888921368021,0.020608009353990063
1742920759.734443,-0.741394,0.029463,-0.096807,0.082716,0.067344,-0.004148,0.2624963460976323,-0.2779888921368021,0.020608009353990063
1742920759.822643,-0.702476,0.061121999999999996,-0.185074,0.06588,-0.026108,-0.021228,0.2575270388775212,-0.26483484361297865,0.019877228880444315
1742920759.8953927,-0.9216489999999999,0.086925,-0.31860299999999997,0.0305,-0.059292,-0.010492,0.2575270388775212,-0.26483484361297865,0.019877228880444315
1742920759.9753656,-1.022299,-0.019703,-0.388997,-0.013663999999999999,-0.033428,0.000976,0.2575270388775212,-0.26483484361297865,0.019877228880444315
1742920760.0549576,-1.151314,-0.040382,-0.355447,-0.043432,0.024888,-0.003904,0.2619117217187957,-0.2692195264542531,0.029523531131248174
1742920760.13585,-1.155645,-0.073688,-0.19763999999999998,-0.05368,0.085156,-0.02318,0.2619117217187957,-0.2692195264542531,0.029523531131248174
1742920760.2233367,-1.125694,0.077348,-0.148169,-0.072712,0.018788,-0.009516,0.26892721426483485,-0.2584039754457761,0.007892429114294067
1742920760.2958438,-0.974475,-0.023972999999999998,-0.188673,-0.049044,-0.040992,-0.034159999999999996,0.26892721426483485,-0.2584039754457761,0.007892429114294067
1742920760.3755357,-0.755119,0.033428,-0.15975899999999998,-0.050752,-0.011467999999999999,-0.015127999999999999,0.26892721426483485,-0.2584039754457761,0.007892429114294067
1742920760.4565077,-0.705221,0.045933,-0.16287,-0.060024,-0.0026839999999999998,0.03782,0.265127155802397,-0.27243496053785443,-0.003800058462437884
1742920760.5375667,-0.866322,0.039955,-0.253577,-0.023667999999999998,-0.069052,0.009516,0.265127155802397,-0.27243496053785443,-0.003800058462437884
1742920760.619057,-1.18889,0.109251,-0.354715,0.032452,-0.044896,0.005856,0.265127155802397,-0.27243496053785443,-0.003800058462437884
1742920760.6959794,-1.22854,0.157868,-0.302804,0.07076,-0.010492,0.023912,0.2616194095293774,-0.275942706810874,-0.016954106986261326
1742920760.7769206,-1.195356,-0.00122,-0.236741,0.087352,0.025376,0.037576,0.2616194095293774,-0.275942706810874,-0.016954106986261326
1742920760.8561997,-1.026081,0.112179,-0.070211,0.065148,0.072712,0.00366,0.253434668225665,-0.27214264834843616,0.015492546039169833
1742920760.9363875,-0.792207,0.108275,-0.099613,0.055876,0.016592,-0.028059999999999998,0.253434668225665,-0.27214264834843616,0.015492546039169833
1742920761.01809,-0.654286,0.074725,-0.156099,0.045628,-0.022935999999999998,-0.036356,0.253434668225665,-0.27214264834843616,0.015492546039169833
1742920761.097325,-0.7759199999999999,0.102663,-0.198616,0.03294,-0.03172,-0.041968,0.2537269804150833,-0.2531423560362467,0.024846536100555393
1742920761.1774943,-0.956541,0.168848,-0.292495,0.03294,-0.049044,-0.047824,0.2537269804150833,-0.2531423560362467,0.024846536100555393
1742920761.2567976,-1.1244129999999999,0.162443,-0.374845,0.047092,-0.040748,-0.035868,0.2706810874013446,-0.23121894182987432,0.014323297281496639
1742920761.3369398,-1.318088,0.10760399999999999,-0.312564,0.064416,0.00732,-0.027816,0.2706810874013446,-0.23121894182987432,0.014323297281496639
1742920761.4257805,-1.483032,0.11962099999999999,-0.10309,0.105652,0.06831999999999999,0.009516,0.2706810874013446,-0.23121894182987432,0.014323297281496639
1742920761.499364,-0.939888,0.07740899999999999,-0.022814,0.166896,0.08906,0.060024,0.24261911721718796,-0.2282958199356913,0.08009353990061385
1742920761.5837917,-0.83082,0.12017,-0.026413,0.21594,0.028059999999999998,0.066856,0.24261911721718796,-0.2282958199356913,0.08009353990061385
1742920761.6577487,-0.7333419999999999,0.003843,-0.089548,0.262056,-0.016836,0.070516,0.24261911721718796,-0.2282958199356913,0.08009353990061385
1742920761.738304,-0.834114,-0.085156,-0.154452,0.23033599999999999,-0.03904,0.088572,0.22741888336743643,-0.21718795673779598,0.11268634902075417
1742920761.8183765,-0.9329339999999999,-0.086559,-0.217892,0.17885199999999998,-0.04026,0.08784,0.22741888336743643,-0.21718795673779598,0.11268634902075417
1742920761.898546,-1.132709,-0.075823,-0.276757,0.145668,-0.034892,0.06709999999999999,0.21543408360128619,-0.22244957614732536,0.1302250803858521
1742920761.9850602,-1.127646,-0.058255,-0.271267,0.10638399999999999,-0.000976,0.06466,0.21543408360128619,-0.22244957614732536,0.1302250803858521
1742920762.058155,-1.17547,-0.057096,-0.260714,0.038796,-0.0305,0.022203999999999998,0.21543408360128619,-0.22244957614732536,0.1302250803858521
1742920762.1390452,-1.0337669999999999,0.037759,-0.137616,-0.002196,0.033184,0.032208,0.18357205495469162,-0.2119263373282666,0.1400175387313651
1742920762.219264,-0.74908,0.058072,-0.10638399999999999,-0.029768,0.03904,0.023667999999999998,0.18357205495469162,-0.2119263373282666,0.1400175387313651
1742920762.2990668,-0.74481,0.005429,-0.144509,-0.042456,0.0017079999999999999,0.010492,0.17421806489330605,-0.23735749780765858,0.14308681672025725
1742920762.3787572,-0.944707,-0.0028669999999999998,-0.234057,-0.076372,-0.023912,-0.018788,0.17421806489330605,-0.23735749780765858,0.14308681672025725
1742920762.4600277,-1.094706,-0.058621,-0.27938,-0.122,0.001952,-0.024888,0.17421806489330605,-0.23735749780765858,0.14308681672025725
1742920762.5439508,-1.147227,-0.103517,-0.228018,-0.167384,0.032208,-0.019032,0.17889505992399882,-0.26425021923414205,0.12189418298743057
1742920762.6190598,-1.248304,0.014823,-0.227713,-0.217648,0.016592,-0.054655999999999996,0.17889505992399882,-0.26425021923414205,0.12189418298743057
1742920762.699259,-1.037549,-0.074664,-0.124379,-0.241316,0.050263999999999996,-0.053924,0.1862028646594563,-0.29055831628178896,0.08886290558316282
1742920762.7792697,-0.878888,-0.05795,-0.047458,-0.242292,0.056119999999999996,-0.051484,0.1862028646594563,-0.29055831628178896,0.08886290558316282
1742920762.8601754,-0.73871,0.019398,-0.114741,-0.220088,-0.015372,-0.060024,0.1862028646594563,-0.29055831628178896,0.08886290558316282
1742920762.943106,-0.830515,0.022448,-0.216611,-0.19154,-0.054655999999999996,-0.037576,0.205495469161064,-0.30780473545746856,0.020169541069862615
1742920763.019648,-0.954406,0.047945999999999996,-0.285053,-0.14884,-0.030255999999999998,-0.045628,0.205495469161064,-0.30780473545746856,0.020169541069862615
1742920763.099774,-1.134356,0.110654,-0.324093,-0.092232,-0.011467999999999999,-0.041724,0.22683425898859982,-0.3048816135632856,0.010815551008477054
1742920763.1798496,-1.256356,0.15982,-0.304268,-0.014884,0.027327999999999998,0.00366,0.22683425898859982,-0.3048816135632856,0.010815551008477054
1742920763.2607644,-1.303692,0.015555,-0.201727,0.060756,0.050508,0.017811999999999998,0.22683425898859982,-0.3048816135632856,0.010815551008477054
1742920763.3425038,-0.988932,0.020069,-0.165859,0.044896,0.065636,-0.0034159999999999998,0.2318035662087109,-0.298450745396083,0.047500730780473545
1742920763.421635,-0.734501,-0.090707,-0.122305,0.015372,0.058316,-0.018543999999999998,0.2318035662087109,-0.298450745396083,0.047500730780473545
1742920763.5002916,-0.677649,-0.041907,-0.18605,-0.010492,-0.012931999999999999,-0.031476,0.2318035662087109,-0.298450745396083,0.047500730780473545
1742920763.5805452,-1.001376,-0.045811,-0.343613,0.0034159999999999998,-0.050508,-0.023424,0.2540192926045016,-0.29611224788073665,0.03230049693072201
1742920763.6659727,-1.198101,-0.098149,-0.333548,-0.009028,-0.01342,-0.02928,0.2540192926045016,-0.29611224788073665,0.03230049693072201
1742920763.7406392,-1.2403739999999999,-0.110166,-0.160796,-0.057828,0.052704,-0.029036,0.2718503361590178,-0.2791581408944753,0.0228003507746273
1742920763.8215153,-1.174982,-0.040992,-0.07448099999999999,-0.107848,0.019275999999999998,-0.032695999999999996,0.2718503361590178,-0.2791581408944753,0.0228003507746273
1742920763.9008424,-0.868335,-0.090402,-0.13017399999999998,-0.136152,-0.030012,-0.024399999999999998,0.2718503361590178,-0.2791581408944753,0.0228003507746273
1742920763.9813075,-0.749751,-0.004026,-0.178608,-0.153964,-0.0549,0.000976,0.2999123063431745,-0.28178895059924,-0.019584916691026015
1742920764.0677905,-0.784399,0.030317,-0.230824,-0.13541999999999998,-0.05856,0.028548,0.2999123063431745,-0.28178895059924,-0.019584916691026015
1742920764.1412683,-0.922137,0.06709999999999999,-0.25315,-0.082228,-0.042943999999999996,0.005612,0.3060508623209588,-0.29114294066062557,-0.07483192049108447
1742920764.2213905,-1.173945,0.08662,-0.29426399999999997,-0.008052,-0.037332,-0.000488,0.3060508623209588,-0.29114294066062557,-0.07483192049108447
1742920764.3022058,-1.292468,0.090524,-0.21490299999999998,0.03782,0.036356,0.004148,0.3060508623209588,-0.29114294066062557,-0.07483192049108447
1742920764.382384,-1.2710569999999999,0.037515,-0.108092,0.058072,0.058316,0.022935999999999998,0.31335866705641624,-0.301373867290266,-0.03010815551008477
1742920764.462845,-1.018639,0.099308,-0.164456,0.04392,0.014395999999999999,0.045871999999999996,0.31335866705641624,-0.301373867290266,-0.03010815551008477
1742920764.5420349,-0.80947,0.074054,-0.117852,0.022203999999999998,0.028548,0.027327999999999998,0.3089739842151418,-0.29815843320666474,-0.022215726395790704
1742920764.6226673,-0.670207,0.036173,-0.121268,0.015127999999999999,0.01098,0.0026839999999999998,0.3089739842151418,-0.29815843320666474,-0.022215726395790704
1742920764.702631,-0.830576,0.036844,-0.205814,0.02684,-0.0305,-0.026108,0.3089739842151418,-0.29815843320666474,-0.022215726395790704
1742920764.7888129,-1.031815,0.030317,-0.34538199999999997,0.017079999999999998,-0.047092,-0.012931999999999999,0.3168664133294358,-0.29143525285004385,-0.04779304296989184
1742920764.862379,-1.120692,0.023119,-0.36783,-0.02196,-0.0060999999999999995,-0.010735999999999999,0.3168664133294358,-0.29143525285004385,-0.04779304296989184
1742920764.9432735,-1.107394,-0.008173999999999999,-0.205143,-0.041968,0.079056,-0.018543999999999998,0.3168664133294358,-0.29143525285004385,-0.04779304296989184
1742920765.0233536,-1.135271,0.020862,-0.066795,-0.047824,-0.033428,-0.012444,0.3197895352236188,-0.28851213095586087,-0.04019292604501608
1742920765.1035144,-0.8599169999999999,0.004575,-0.127917,-0.07442,-0.041236,-0.040748,0.3197895352236188,-0.28851213095586087,-0.04019292604501608
1742920765.189419,-0.780373,0.04514,-0.195749,-0.083936,-0.051484,-0.0060999999999999995,0.323881905875475,-0.27565039462145574,-0.07775504238526747
1742920765.2639773,-0.879437,0.045323,-0.257664,-0.060024,-0.028791999999999998,0.008052,0.323881905875475,-0.27565039462145574,-0.07775504238526747
1742920765.343289,-1.037793,0.080947,-0.309758,-0.031232,-0.014395999999999999,0.006344,0.323881905875475,-0.27565039462145574,-0.07775504238526747
1742920765.4245317,-1.197125,0.074115,-0.2745,0.017324,0.017811999999999998,0.011224,0.3311897106109325,-0.26892721426483485,-0.09134755919321835
1742920765.5035233,-1.213473,0.091866,-0.175131,0.052216,0.047824,0.027327999999999998,0.3311897106109325,-0.26892721426483485,-0.09134755919321835
1742920765.5836687,-1.118557,0.096929,-0.17208099999999998,0.046604,0.013176,0.033428,0.3244665302543116,-0.2806197018415668,-0.07497807658579363
1742920765.6645653,-1.005158,0.077043,-0.095404,0.04392,0.015127999999999999,0.027816,0.3244665302543116,-0.2806197018415668,-0.07497807658579363
1742920765.7450283,-0.758962,0.010065,-0.11486299999999999,0.049288,-0.015372,-0.0026839999999999998,0.3244665302543116,-0.2806197018415668,-0.07497807658579363
1742920765.824063,-0.739076,0.010369999999999999,-0.19983599999999999,0.032208,-0.042212,-0.0068319999999999995,0.3279742765273312,-0.2747734580532008,-0.07804735457468577
1742920765.9041975,-0.859978,0.024766,-0.273036,0.022692,-0.01098,-0.021471999999999998,0.3279742765273312,-0.2747734580532008,-0.07804735457468577
1742920765.9849951,-1.075308,0.003538,-0.270779,0.016104,0.019032,-0.034404,0.33294358374744226,-0.2581116632563578,-0.06430868167202572
1742920766.0649374,-1.134905,0.051179,-0.230824,-0.000976,0.033916,-0.037576,0.33294358374744226,-0.2581116632563578,-0.06430868167202572
1742920766.1461425,-1.259284,0.053253,-0.168177,0.002196,0.021716,-0.039772,0.33294358374744226,-0.2581116632563578,-0.06430868167202572
1742920766.225487,-1.120326,-0.054168,-0.14036099999999999,0.004148,0.0183,-0.02196,0.33528208126278863,-0.2329728149663841,-0.05627009646302251
1742920766.3056502,-0.955504,-0.020618,-0.140544,-0.019275999999999998,0.015127999999999999,-0.008052,0.33528208126278863,-0.2329728149663841,-0.05627009646302251
1742920766.3849247,-0.821548,0.003477,-0.169641,-0.030987999999999998,-0.008539999999999999,0.031232,0.3232972814966384,-0.24729611224788073,-0.07205495469161063
1742920766.4662838,-0.8395429999999999,0.008845,-0.22844499999999998,-0.034892,0.044896,0.034159999999999996,0.3232972814966384,-0.24729611224788073,-0.07205495469161063
1742920766.545125,-1.021079,0.035746,-0.24143799999999999,-0.006344,-0.003172,0.019764,0.3232972814966384,-0.24729611224788073,-0.07205495469161063
1742920766.625276,-1.086288,0.052704,-0.240584,0.01586,-0.013908,0.018788,0.31365097924583457,-0.25665010230926627,-0.06474714995615317
1742920766.7060907,-1.150521,0.05185,-0.23802199999999998,0.021228,0.0017079999999999999,0.038551999999999996,0.31365097924583457,-0.25665010230926627,-0.06474714995615317
1742920766.7858737,-1.125572,0.045201,-0.182207,0.000244,0.044652,0.068076,0.31365097924583457,-0.25665010230926627,-0.06474714995615317
1742920766.872153,-0.942206,0.030683,-0.15329299999999998,-0.012444,0.030012,0.050508,0.3002046185325928,-0.2850043846828413,-0.04633148202280035
1742920766.951661,-0.790377,0.011773,-0.226981,-0.021471999999999998,-0.029036,0.012688,0.3002046185325928,-0.2850043846828413,-0.04633148202280035
1742920767.0229232,-0.824781,0.038674,-0.270962,-0.025376,-0.022203999999999998,-0.010735999999999999,0.2993276819643379,-0.28821981876644254,-0.06021631102016954
1742920767.1029654,-0.876204,0.078385,-0.286822,-0.010492,0.02562,-0.036112,0.2993276819643379,-0.28821981876644254,-0.06021631102016954
1742920767.1828325,-1.053531,0.079666,-0.333609,0.020984,0.028304,-0.073444,0.2993276819643379,-0.28821981876644254,-0.06021631102016954
1742920767.2629044,-1.124657,0.002013,-0.311649,0.031964,0.042212,-0.062708,0.31335866705641624,-0.2537269804150833,-0.045893013738672904
1742920767.3430197,-1.119411,-0.020679,-0.244549,-0.000732,0.028791999999999998,-0.04758,0.31335866705641624,-0.2537269804150833,-0.045893013738672904
1742920767.423077,-1.040599,-0.006771,-0.165188,-0.047092,0.000244,-0.012199999999999999,0.30926629640456005,-0.2581116632563578,-0.05846243788365975
1742920767.5036604,-1.000156,0.046055,-0.209413,-0.066368,-0.040992,0.0026839999999999998,0.30926629640456005,-0.2581116632563578,-0.05846243788365975
1742920767.583253,-0.879559,0.008173999999999999,-0.250222,-0.051972,-0.00976,0.043432,0.30926629640456005,-0.2581116632563578,-0.05846243788365975
1742920767.6633499,-0.747006,-0.070516,-0.279502,-0.024156,0.055388,-0.015127999999999999,0.30926629640456005,-0.253434668225665,-0.04077755042385268
1742920767.7434084,-0.981673,0.057157,-0.309575,0.019275999999999998,0.017079999999999998,-0.091988,0.30926629640456005,-0.253434668225665,-0.04077755042385268
1742920767.8235188,-1.1372229999999999,0.084424,-0.37685799999999997,0.073444,0.043432,-0.069296,0.3089739842151418,-0.24641917567962585,0.002630809704764689
1742920767.90358,-1.061583,-0.04331,-0.360205,0.073444,0.11712,0.04636,0.3089739842151418,-0.24641917567962585,0.002630809704764689
1742920767.9836898,-1.067622,-0.066856,-0.27327999999999997,0.052704,0.057583999999999996,0.023667999999999998,0.3089739842151418,-0.24641917567962585,0.002630809704764689
1742920768.0637457,-0.74237,-0.06527,-0.236314,0.022692,0.016592,0.026352,0.3025431160479392,-0.24291142940660626,0.015200233849751535
1742920768.1438687,-0.7403569999999999,-0.013725,-0.30866,-0.013663999999999999,-0.036356,0.022203999999999998,0.3025431160479392,-0.24291142940660626,0.015200233849751535
1742920768.2239213,-0.825879,0.020801,-0.359839,-0.01586,-0.038308,-0.022448,0.3025431160479392,-0.24291142940660626,0.015200233849751535
1742920768.3040297,-0.9560529999999999,-0.030134,-0.398574,-0.0053679999999999995,-0.011467999999999999,-0.028548,0.3060508623209588,-0.24963460976322713,-0.0024846536100555394
1742920768.384091,-1.082262,-0.069662,-0.388631,0.0017079999999999999,0.01586,-0.05856,0.3060508623209588,-0.24963460976322713,-0.0024846536100555394
1742920768.4641933,-1.209447,-0.13602999999999998,-0.338794,-0.030255999999999998,-0.00244,-0.048312,0.31657410114001755,-0.22888044431452792,-0.00482315112540193
1742920768.544268,-1.156316,-0.13115,-0.299571,-0.07808,-0.015372,-0.00732,0.31657410114001755,-0.22888044431452792,-0.00482315112540193
1742920768.624338,-0.9429379999999999,-0.071614,-0.20923,-0.087352,0.017568,0.03172,0.31657410114001755,-0.22888044431452792,-0.00482315112540193
1742920768.7044632,-0.76372,-0.02867,-0.238205,-0.051972,0.0,0.042212,0.3002046185325928,-0.2522654194679918,-0.012715580239695995
1742920768.7845166,-0.776957,-0.026535,-0.302804,-0.030744,-0.015616,0.022448,0.3002046185325928,-0.2522654194679918,-0.012715580239695995
1742920768.86462,-0.816546,-0.013237,-0.362157,-0.01342,-0.011712,0.017811999999999998,0.30371236480561237,-0.26571178018123354,-0.03010815551008477
1742920768.9446783,-0.979721,-0.020923,-0.397354,0.026108,-0.033184,0.016836,0.30371236480561237,-0.26571178018123354,-0.03010815551008477
1742920769.0247881,-1.078724,-0.048434,-0.398086,0.04392,-0.031476,0.02562,0.30371236480561237,-0.26571178018123354,-0.03010815551008477
1742920769.1048481,-1.183583,-0.011224,-0.35441,0.013176,-0.049288,0.02562,0.298450745396083,-0.27711195556854723,-0.052908506284712074
1742920769.1849573,-1.131611,0.045323,-0.254736,0.017324,-0.022203999999999998,0.031232,0.298450745396083,-0.27711195556854723,-0.052908506284712074
1742920769.2650228,-1.003999,0.017751,-0.197884,0.062952,0.036844,0.020984,0.2861736334405145,-0.2829581993569132,-0.021338789827535808
1742920769.3451276,-0.789401,0.0066489999999999995,-0.199104,0.054168,0.0427,0.01098,0.2861736334405145,-0.2829581993569132,-0.021338789827535808
1742920769.4253857,-0.836554,0.034282,-0.312747,0.032452,-0.012688,0.035136,0.2861736334405145,-0.2829581993569132,-0.021338789827535808
1742920769.5052934,-0.846619,0.036356,-0.379054,0.040748,0.044652,-0.03294,0.29143525285004385,-0.28178895059924,0.0020461853259280912
1742920769.5853527,-0.9776469999999999,-0.074359,-0.41541,0.051484,0.02318,-0.077836,0.29143525285004385,-0.28178895059924,0.0020461853259280912
1742920769.6654587,-1.0769549999999999,-0.212402,-0.359839,-0.009271999999999999,-0.022692,-0.085156,0.29143525285004385,-0.28178895059924,-0.03536977491961415
1742920769.7455215,-1.199443,-0.077226,-0.358436,-0.139812,-0.083204,-0.038308,0.3040046769950307,-0.24495761473253436,-0.01666179479684303
1742920769.8256364,-0.9514779999999999,-0.087535,-0.23399599999999998,-0.142008,0.012688,0.048556,0.3040046769950307,-0.24495761473253436,-0.01666179479684303
1742920769.9056892,-0.910242,-0.000488,-0.28590699999999997,-0.107848,-0.030012,0.029036,0.30838935983630517,-0.2712657117801812,-0.04603916983338205
1742920769.9858,-0.807945,-0.002196,-0.274744,-0.073444,0.004392,0.03904,0.30838935983630517,-0.2712657117801812,-0.04603916983338205
1742920770.0658555,-0.8702259999999999,0.06344,-0.341844,-0.051484,-0.0034159999999999998,0.008296,0.30838935983630517,-0.2712657117801812,-0.04603916983338205
1742920770.1459963,-0.9709369999999999,0.062280999999999996,-0.355386,0.00976,0.027084,-0.00244,0.31277404267757963,-0.26483484361297865,-0.05349313066354867
1742920770.226056,-1.053348,0.023363,-0.340624,0.075396,0.061975999999999996,-0.026595999999999998,0.31277404267757963,-0.26483484361297865,-0.05349313066354867
1742920770.306162,-1.078358,-0.053558,-0.28182,0.087352,0.055144,-0.024888,0.3054662379421222,-0.2540192926045016,-0.010523238819058756
1742920770.386643,-1.082506,-0.043798,-0.28438199999999997,0.058072,-0.014395999999999999,0.001464,0.3054662379421222,-0.2540192926045016,-0.010523238819058756
1742920770.4692805,-0.963495,-0.051179,-0.27755,0.023424,-0.04392,0.046848,0.3054662379421222,-0.2540192926045016,-0.010523238819058756
1742920770.546396,-0.9021899999999999,0.00244,-0.285175,0.011224,-0.021471999999999998,0.037087999999999996,0.29465068693364516,-0.26425021923414205,-0.013154048523823443
1742920770.629421,-0.707234,-0.161955,-0.26992499999999997,0.052704,0.041479999999999996,-0.01098,0.29465068693364516,-0.26425021923414205,-0.013154048523823443
1742920770.706559,-0.934215,-0.025986,-0.37094099999999997,-0.01586,-0.055144,-0.026595999999999998,0.3051739257527039,-0.2528500438468284,-0.03040046769950307
1742920770.789592,-0.980636,-0.013176,-0.41290899999999997,-0.048312,-0.029768,0.009516,0.3051739257527039,-0.2528500438468284,-0.03040046769950307
1742920770.8667285,-0.981246,0.006039,-0.410286,-0.033672,0.021228,-0.020252,0.3051739257527039,-0.2528500438468284,-0.03040046769950307
1742920770.9489098,-1.029619,-0.113399,-0.266814,-0.008539999999999999,0.049776,-0.048799999999999996,0.31043554516223326,-0.2332651271558024,-0.014907921660333235
1742920771.0268986,-1.034194,-0.04453,-0.293776,-0.050508,-0.048068,-0.013908,0.31043554516223326,-0.2332651271558024,-0.014907921660333235
1742920771.1082299,-0.902922,0.025436999999999998,-0.321409,-0.04636,-0.035136,0.059047999999999996,0.30985092078339666,-0.23852674656533177,-0.04866997953814674
1742920771.1870599,-0.716262,0.006161,-0.278587,-0.018056,0.000732,0.056119999999999996,0.30985092078339666,-0.23852674656533177,-0.04866997953814674
1742920771.267499,-0.856318,0.049898,-0.291031,0.0026839999999999998,-0.050263999999999996,0.047824,0.30985092078339666,-0.23852674656533177,-0.04866997953814674
1742920771.3472188,-1.072868,0.019275999999999998,-0.384483,0.077836,-0.008052,0.021716,0.3019584916691026,-0.2581116632563578,-0.04092370651856182
1742920771.4273193,-1.120997,-0.048983,-0.435296,0.152744,0.06539199999999999,-0.003172,0.3019584916691026,-0.2581116632563578,-0.04092370651856182
1742920771.5074174,-1.1402729999999999,-0.112667,-0.485987,0.125904,0.028791999999999998,0.060756,0.3019584916691026,-0.2581116632563578,-0.04092370651856182
1742920771.5874658,-1.078236,0.053496999999999996,-0.266692,0.010248,-0.00122,0.067344,0.27243496053785443,-0.29815843320666474,-0.028646594562993278
1742920771.6675787,-0.96807,0.07503,-0.176046,-0.008784,0.010492,0.041479999999999996,0.27243496053785443,-0.29815843320666474,-0.028646594562993278
1742920771.7476346,-0.7592059999999999,0.072346,-0.172325,0.024156,0.027572,0.060268,0.25109617071031864,-0.3262204033908214,-0.02776965799473838
1742920771.8277392,-0.754265,0.067039,-0.26535,0.028059999999999998,-0.014152,0.058804,0.25109617071031864,-0.3262204033908214,-0.02776965799473838
1742920771.9077957,-0.7853749999999999,0.026900999999999998,-0.33733,0.029768,0.0026839999999999998,-0.0046359999999999995,0.25109617071031864,-0.3262204033908214,-0.02776965799473838
1742920771.9887536,-0.903349,0.002745,-0.37576,0.020007999999999998,-0.015372,-0.049044,0.2706810874013446,-0.29494299912306343,-0.02353113124817305
1742920772.0713034,-1.073234,-0.022203999999999998,-0.406748,0.0183,-0.01098,-0.064416,0.2706810874013446,-0.29494299912306343,-0.02353113124817305
1742920772.1514463,-1.11569,-0.052582,-0.366,0.067832,0.061244,-0.066856,0.2820812627886583,-0.2595732242034493,0.0008769365682548962
1742920772.2393107,-1.105137,-0.10614,-0.358192,0.0183,0.022448,-0.084424,0.2820812627886583,-0.2595732242034493,0.0008769365682548962
1742920772.3121963,-1.00772,-0.117608,-0.280905,-0.088572,-0.028059999999999998,-0.042212,0.2820812627886583,-0.2595732242034493,0.0008769365682548962
1742920772.391892,-0.848571,0.006954,-0.302255,-0.126636,-0.076128,0.038308,0.29348143817597194,-0.2797427652733119,-0.04983922829581994
1742920772.4734538,-0.826855,0.07625,-0.338672,-0.075152,0.010735999999999999,0.01952,0.29348143817597194,-0.2797427652733119,-0.04983922829581994
1742920772.5588489,-1.02663,0.112789,-0.37454,-0.008539999999999999,0.01464,-0.016592,0.2826658871674949,-0.2806197018415668,-0.053931598947676115
1742920772.6321862,-1.13033,0.157319,-0.312747,0.022448,0.000244,0.070516,0.2826658871674949,-0.2806197018415668,-0.053931598947676115
1742920772.7124279,-1.14253,0.052337999999999996,-0.272731,0.040015999999999996,-0.024156,0.082472,0.2826658871674949,-0.2806197018415668,-0.053931598947676115
1742920772.7931604,-1.077809,0.123403,-0.24217,0.030987999999999998,-0.039772,0.042456,0.26278865828705056,-0.3121894182987431,-0.054370067231803564
1742920772.8733225,-0.928786,0.040687,-0.225944,0.043188,-0.021471999999999998,0.011956,0.26278865828705056,-0.3121894182987431,-0.054370067231803564
1742920772.959691,-0.806908,0.019459,-0.22082,0.055876,-0.008052,-0.023424,0.267173341128325,-0.3031277404267758,-0.05363928675825782
1742920773.0322254,-0.748409,0.011895,-0.23893699999999998,0.038551999999999996,-0.009516,-0.023424,0.267173341128325,-0.3031277404267758,-0.05363928675825782
1742920773.111536,-0.885415,0.021594,-0.324886,0.014152,-0.034648,-0.026108,0.267173341128325,-0.3031277404267758,-0.05363928675825782
1742920773.193084,-1.131611,0.020374,-0.37533299999999997,-0.003904,-0.022448,-0.030987999999999998,0.26600409237065187,-0.2855890090616779,-0.05378544285296697
1742920773.274028,-1.1773,-0.012078,-0.302377,-0.021471999999999998,0.0305,-0.020984,0.26600409237065187,-0.2855890090616779,-0.05378544285296697
1742920773.3590033,-1.180777,-0.020862,-0.190747,-0.038064,0.041968,-0.044896,0.26600409237065187,-0.2855890090616779,-0.05378544285296697
1742920773.4346812,-1.0187,-0.072346,-0.236924,-0.054168,-0.0034159999999999998,-0.034159999999999996,0.27711195556854723,-0.2803273896521485,-0.053931598947676115
1742920773.5135708,-0.930921,-0.060207,-0.219356,-0.090036,0.015372,-0.0060999999999999995,0.27711195556854723,-0.2803273896521485,-0.053931598947676115
1742920773.5937457,-0.781532,0.03172,-0.234179,-0.088572,0.003904,0.023424,0.27155802396959955,-0.28821981876644254,-0.07000876936568255
1742920773.6738787,-0.698877,0.047885,-0.266143,-0.060511999999999996,-0.012444,0.029523999999999998,0.27155802396959955,-0.28821981876644254,-0.07000876936568255
1742920773.753948,-0.871873,0.03233,-0.34507699999999997,-0.037332,-0.034648,0.013908,0.27155802396959955,-0.28821981876644254,-0.07000876936568255
1742920773.8341033,-1.106174,0.057279,-0.39192499999999997,-0.013663999999999999,-0.033672,0.031964,0.2727272727272727,-0.29552762350190004,-0.08769365682548963
1742920773.9149435,-1.15473,0.039894,-0.315919,0.015127999999999999,-0.0017079999999999999,0.038796,0.2727272727272727,-0.29552762350190004,-0.08769365682548963
1742920773.9943318,-1.234335,0.139568,-0.20014099999999999,0.047335999999999996,-0.017079999999999998,0.00976,0.2645425314235604,-0.3004969307220111,-0.07687810581701257
1742920774.0744667,-0.917257,0.069113,-0.1769,0.062708,0.01098,0.000244,0.2645425314235604,-0.3004969307220111,-0.07687810581701257
1742920774.1545856,-0.799161,0.034892,-0.22600499999999998,0.06417199999999999,-0.009271999999999999,-0.013176,0.2645425314235604,-0.3004969307220111,-0.07687810581701257
1742920774.2346823,-0.783606,0.039528,-0.255895,0.032208,-0.00488,-0.010248,0.2548962291727565,-0.28588132125109617,-0.0695703010815551
1742920774.3147323,-0.898774,0.060573,-0.312686,0.0017079999999999999,-0.011467999999999999,-0.001952,0.2548962291727565,-0.28588132125109617,-0.0695703010815551
1742920774.394916,-1.1743109999999999,0.059292,-0.36478,-0.031232,-0.011712,0.012444,0.26278865828705056,-0.2990353697749196,-0.07570885705933937
1742920774.4763947,-1.204079,0.011285,-0.27114499999999997,-0.04514,0.049776,0.009271999999999999,0.26278865828705056,-0.2990353697749196,-0.07570885705933937
1742920774.55509,-1.130757,0.044347,-0.169214,-0.049532,0.053191999999999996,-0.01586,0.26278865828705056,-0.2990353697749196,-0.07570885705933937
1742920774.638554,-0.894931,-0.066856,-0.20075099999999999,-0.052704,0.0068319999999999995,-0.033672,0.267173341128325,-0.28675825781935105,-0.07059339374451915
1742920774.7153928,-0.871385,-0.010553,-0.214415,-0.088328,-0.00488,-0.02562,0.267173341128325,-0.28675825781935105,-0.07059339374451915
1742920774.7955146,-0.754509,0.039710999999999996,-0.23155599999999998,-0.079544,-0.017079999999999998,-0.011467999999999999,0.267173341128325,-0.28675825781935105,-0.07059339374451915
1742920774.875593,-0.775249,0.04636,-0.282125,-0.056364,-0.029036,-0.008296,0.2718503361590178,-0.27243496053785443,-0.09953230049693072
1742920774.9564862,-1.038769,0.080764,-0.37637,-0.038796,-0.055144,-0.000244,0.2718503361590178,-0.27243496053785443,-0.09953230049693072
1742920775.0382047,-1.203408,0.070455,-0.32134799999999997,-0.005612,-0.00976,0.020252,0.26220403390821395,-0.28997369190295236,-0.1047939199064601
1742920775.115942,-1.186938,0.098088,-0.20569199999999999,0.020739999999999998,0.024399999999999998,0.031232,0.26220403390821395,-0.28997369190295236,-0.1047939199064601
1742920775.1968415,-1.102392,0.142984,-0.148169,0.044652,0.0060999999999999995,0.048312,0.26220403390821395,-0.28997369190295236,-0.1047939199064601
1742920775.276959,-0.892491,0.133712,-0.21953899999999998,0.077348,-0.02562,0.039772,0.2528500438468284,-0.2990353697749196,-0.09339374451914645
1742920775.3568683,-0.8608319999999999,0.033916,-0.23710699999999998,0.07686,-0.040015999999999996,0.0060999999999999995,0.2528500438468284,-0.2990353697749196,-0.09339374451914645
1742920775.4459343,-0.777384,0.052826,-0.273707,0.006588,0.002928,-0.0053679999999999995,0.259280912014031,-0.2990353697749196,-0.09558608593978368
1742920775.51776,-1.094462,0.055265999999999996,-0.287371,0.0046359999999999995,0.008052,-0.01952,0.259280912014031,-0.2990353697749196,-0.09558608593978368
1742920775.5976126,-1.165649,0.048129,-0.273463,-0.00976,0.024399999999999998,-0.01098,0.259280912014031,-0.2990353697749196,-0.09558608593978368
1742920775.6769838,-1.195905,0.010797,-0.17946199999999998,-0.028059999999999998,0.054168,-0.007808,0.27360420929552765,-0.2855890090616779,-0.08900906167787197
1742920775.7571397,-1.049017,0.041663,-0.171898,-0.03904,0.02562,-0.039772,0.27360420929552765,-0.2855890090616779,-0.08900906167787197
1742920775.837257,-0.907436,0.016714,-0.185135,-0.05368,-0.003172,-0.01586,0.27214264834843616,-0.2803273896521485,-0.09938614440222157
1742920775.917386,-0.768844,0.082838,-0.202947,-0.061488,-0.022203999999999998,0.007808,0.27214264834843616,-0.2803273896521485,-0.09938614440222157
1742920775.997467,-0.757864,0.092598,-0.217648,-0.033672,-0.02562,0.011956,0.27214264834843616,-0.2803273896521485,-0.09938614440222157
1742920776.077624,-0.891881,0.096624,-0.265411,0.003172,-0.034892,-0.005612,0.2753580824320374,-0.2826658871674949,-0.11546331482022801
1742920776.164291,-1.12423,0.13633499999999998,-0.36545099999999997,0.025863999999999998,-0.051972,0.028059999999999998,0.2753580824320374,-0.2826658871674949,-0.11546331482022801
1742920776.238577,-1.239947,0.125111,-0.238876,0.029768,0.015372,0.069052,0.2557731657410114,-0.31043554516223326,-0.09748611517100263
1742920776.3187413,-1.247145,0.076982,-0.124501,0.03172,0.008296,0.060511999999999996,0.2557731657410114,-0.31043554516223326,-0.09748611517100263
1742920776.398997,-0.9819169999999999,0.118889,-0.24235299999999999,0.042943999999999996,-0.045384,0.036112,0.2557731657410114,-0.31043554516223326,-0.09748611517100263
1742920776.4793239,-0.888465,0.14005599999999999,-0.160918,0.059292,0.026108,0.01342,0.2513884828997369,-0.31862028646594565,-0.09163987138263666
1742920776.5583813,-0.6575799999999999,0.099491,-0.161345,0.08295999999999999,0.029768,-0.019032,0.2513884828997369,-0.31862028646594565,-0.09163987138263666
1742920776.6385446,-0.806847,0.026779,-0.240401,0.093208,0.004392,-0.04758,0.2513884828997369,-0.31862028646594565,-0.09163987138263666
1742920776.7213564,-1.107577,-0.013663999999999999,-0.402661,0.065636,-0.019275999999999998,-0.038064,0.27301958491669104,-0.29260450160771706,-0.07000876936568255
1742920776.7987492,-1.162782,-0.002623,-0.330193,0.008784,0.060268,-0.022448,0.27301958491669104,-0.29260450160771706,-0.07000876936568255
1742920776.87888,-1.215608,0.018361,-0.15298799999999999,-0.032695999999999996,0.098332,-0.046604,0.2744811458637825,-0.26980415083308973,-0.04735457468576439
1742920776.9598372,-1.071404,-0.023485,-0.195932,-0.047092,-0.008296,-0.040504,0.2744811458637825,-0.26980415083308973,-0.04735457468576439
1742920777.0396774,-0.700829,0.004758,-0.16622499999999998,-0.081984,-0.00732,-0.003904,0.2744811458637825,-0.26980415083308973,-0.04735457468576439
1742920777.1203632,-0.768539,0.044164,-0.247782,-0.07417599999999999,-0.058804,0.0060999999999999995,0.2733118971061093,-0.26629640456007014,-0.0707395498392283
1742920777.1994662,-0.9706319999999999,0.060024,-0.349774,-0.041724,-0.062464,0.009516,0.2733118971061093,-0.26629640456007014,-0.0707395498392283
1742920777.2803447,-1.071221,0.090402,-0.369477,0.000244,-0.013663999999999999,0.032452,0.2727272727272727,-0.2776965799473838,-0.07395498392282958
1742920777.359678,-1.0946449999999999,0.018971,-0.231434,0.059292,0.032695999999999996,0.042212,0.2727272727272727,-0.2776965799473838,-0.07395498392282958
1742920777.440954,-1.217926,-0.010797,-0.241377,0.092476,-0.022935999999999998,0.049044,0.2727272727272727,-0.2776965799473838,-0.07395498392282958
1742920777.5198996,-1.065853,0.105896,-0.26900999999999997,0.082716,-0.028059999999999998,0.014152,0.26366559485530544,-0.29698918444899153,-0.058754750073078045
1742920777.6000354,-0.831979,-0.024522,-0.057706,0.066856,0.020739999999999998,-0.016104,0.26366559485530544,-0.29698918444899153,-0.058754750073078045
1742920777.6808698,-0.784338,-0.030012,-0.087413,0.07417599999999999,-0.054655999999999996,-0.036112,0.275942706810874,-0.26571178018123354,-0.04501607717041801
1742920777.7608094,-0.845887,0.06417199999999999,-0.263947,0.01342,-0.062952,-0.000976,0.275942706810874,-0.26571178018123354,-0.04501607717041801
1742920777.845726,-1.0413919999999999,0.043798,-0.35312899999999997,-0.037087999999999996,-0.028548,-0.013663999999999999,0.275942706810874,-0.26571178018123354,-0.04501607717041801
1742920777.9205694,-1.2646519999999999,0.081557,-0.343491,-0.043432,0.01342,0.00976,0.26746565331774336,-0.27565039462145574,-0.050277696579947385
1742920778.001489,-1.085983,0.064721,-0.287005,-0.025376,0.047335999999999996,0.00732,0.26746565331774336,-0.27565039462145574,-0.050277696579947385
1742920778.081534,-1.113921,-0.018727,-0.16994599999999999,-0.021228,0.021471999999999998,-0.030012,0.26746565331774336,-0.27565039462145574,-0.050277696579947385
1742920778.1617677,-0.867054,-0.023058,-0.133529,-0.061488,0.038064,0.003172,0.28880444314527914,-0.26775796550716163,-0.06007015492546039
1742920778.245521,-0.883585,0.040687,-0.117913,-0.075884,0.014884,0.02684,0.28880444314527914,-0.26775796550716163,-0.06007015492546039
1742920778.32193,-0.818437,0.014579,-0.169702,-0.064416,-0.024399999999999998,0.024888,0.2835428237357498,-0.2782812043262204,-0.07936275942706811
1742920778.4020343,-0.839665,0.042883,-0.235704,-0.055144,-0.027084,-0.0034159999999999998,0.2835428237357498,-0.2782812043262204,-0.07936275942706811
1742920778.4823282,-1.2330539999999999,0.07417599999999999,-0.28621199999999997,0.044896,0.008296,0.018056,0.2835428237357498,-0.2782812043262204,-0.07936275942706811
1742920778.5615277,-1.109712,0.100284,-0.160186,0.066612,0.058316,0.044164,0.28529669687225956,-0.28675825781935105,-0.06474714995615317
1742920778.6416006,-1.010343,0.068198,-0.171044,0.068808,-0.009028,0.043676,0.28529669687225956,-0.28675825781935105,-0.06474714995615317
1742920778.7224953,-0.916586,0.099491,-0.185196,0.054655999999999996,-0.042456,0.032208,0.2747734580532008,-0.2978661210172464,-0.05685472084185911
1742920778.8059778,-0.831064,0.035075,-0.12986899999999998,0.064416,-0.021471999999999998,-0.000732,0.2747734580532008,-0.2978661210172464,-0.05685472084185911
1742920778.8824992,-0.788547,0.012627,-0.198189,0.066124,-0.039772,-0.019764,0.2747734580532008,-0.2978661210172464,-0.05685472084185911
1742920778.9621983,-0.925736,0.028364999999999998,-0.282125,0.047335999999999996,-0.029768,-0.025131999999999998,0.278865828705057,-0.2706810874013446,-0.05217772581116632
1742920779.0430279,-1.137162,0.046055,-0.308172,0.021471999999999998,0.0068319999999999995,-0.005124,0.278865828705057,-0.2706810874013446,-0.05217772581116632
1742920779.1231792,-1.153449,0.032390999999999996,-0.240401,-0.003904,0.052216,-0.016104,0.2835428237357498,-0.2753580824320374,-0.03814674071908799
1742920779.207521,-1.189012,0.0,-0.17763199999999998,-0.035868,0.044407999999999996,-0.035623999999999996,0.2835428237357498,-0.2753580824320374,-0.03814674071908799
1742920779.2826345,-1.044808,0.036905,-0.167506,-0.056852,0.010003999999999999,-0.053924,0.2835428237357498,-0.2753580824320374,-0.03814674071908799
1742920779.3628116,-0.885903,0.020313,-0.153781,-0.071004,0.002928,-0.02196,0.28821981876644254,-0.2630809704764689,-0.050277696579947385
1742920779.444305,-0.7607309999999999,0.038186,-0.166591,-0.071492,-0.018056,0.01342,0.28821981876644254,-0.2630809704764689,-0.050277696579947385
1742920779.5303285,-0.795623,0.030560999999999998,-0.207278,-0.05856,-0.02318,0.015127999999999999,0.28821981876644254,-0.2718503361590178,-0.08374744226834259
1742920779.6031194,-0.9368989999999999,0.012322,-0.288347,-0.054655999999999996,-0.021471999999999998,-0.001952,0.28821981876644254,-0.2718503361590178,-0.08374744226834259
1742920779.6832864,-1.132587,0.099186,-0.320799,-0.026352,-0.013663999999999999,-0.013176,0.28821981876644254,-0.2718503361590178,-0.08374744226834259
1742920779.7634268,-1.245681,0.105896,-0.225578,0.021716,0.01952,0.037576,0.2779888921368021,-0.27711195556854723,-0.07263957907044724
1742920779.8434818,-1.205055,0.133102,-0.165798,0.050996,0.00122,0.051727999999999996,0.2779888921368021,-0.27711195556854723,-0.07263957907044724
1742920779.9301486,-1.024068,0.12224399999999999,-0.21594,0.07198,0.026108,0.0017079999999999999,0.2779888921368021,-0.27711195556854723,-0.07263957907044724
1742920780.0037189,-0.781044,0.015738,-0.135298,0.08174,0.030255999999999998,-0.033916,0.2776965799473838,-0.2794504530838936,-0.04340836012861737
1742920780.0838637,-0.801113,-0.000732,-0.216367,0.06344,-0.016104,-0.023912,0.2776965799473838,-0.2794504530838936,-0.04340836012861737
1742920780.1639261,-0.981734,-0.011467999999999999,-0.255956,0.02684,-0.013663999999999999,-0.016104,0.2774042677579655,-0.2645425314235604,-0.04253142356036247
1742920780.2441006,-1.0827499999999999,-0.002928,-0.241804,-0.014395999999999999,0.006344,-0.042943999999999996,0.2774042677579655,-0.2645425314235604,-0.04253142356036247
1742920780.3293018,-1.138687,-0.020923,-0.172142,-0.052948,0.026108,-0.02928,0.2774042677579655,-0.2645425314235604,-0.04253142356036247
1742920780.4043028,-1.143384,0.03721,-0.14066599999999999,-0.07124799999999999,0.005124,-0.015616,0.2861736334405145,-0.2508038585209003,-0.051885413621748026
1742920780.4838462,-0.989542,-0.060816999999999996,-0.1525,-0.059536,-0.030987999999999998,0.001464,0.2861736334405145,-0.2508038585209003,-0.051885413621748026
1742920780.5655375,-0.832955,-0.033672,-0.17116599999999998,-0.07198,-0.052216,0.010248,0.2855890090616779,-0.2598655363928676,-0.08360128617363344
1742920780.6460977,-0.88816,0.065758,-0.212829,-0.061732,-0.069052,0.044407999999999996,0.2855890090616779,-0.2598655363928676,-0.08360128617363344
1742920780.7247243,-0.907802,0.032879,-0.247538,-0.025863999999999998,-0.036112,0.049288,0.2855890090616779,-0.2598655363928676,-0.08360128617363344
1742920780.8056254,-1.0748199999999999,0.125904,-0.26065299999999997,0.014884,0.00244,0.042943999999999996,0.2820812627886583,-0.2785735165156387,-0.1047939199064601
1742920780.8849764,-1.204262,0.0549,-0.22997,0.060511999999999996,0.033184,0.050263999999999996,0.2820812627886583,-0.2785735165156387,-0.1047939199064601
1742920780.9651449,-1.120326,0.12749,-0.172447,0.075884,0.045384,0.05124,0.267173341128325,-0.29143525285004385,-0.06313943291435253
1742920781.0459263,-1.061461,0.1281,-0.138531,0.102968,0.021228,0.040748,0.267173341128325,-0.29143525285004385,-0.06313943291435253
1742920781.1253626,-0.905972,0.094794,-0.131455,0.121268,0.0046359999999999995,0.004392,0.267173341128325,-0.29143525285004385,-0.06313943291435253
1742920781.2055202,-0.820023,0.016531,-0.134993,0.102236,-0.011224,-0.01342,0.2645425314235604,-0.28880444314527914,-0.03873136509792458
1742920781.2872293,-0.854244,-0.009089,-0.208498,0.050752,-0.027327999999999998,-0.009516,0.2645425314235604,-0.28880444314527914,-0.03873136509792458
1742920781.365713,-0.853024,0.040077,-0.23985199999999998,-0.00366,0.004148,-0.014152,0.2645425314235604,-0.28880444314527914,-0.03873136509792458
1742920781.4433246,-1.137406,0.036417,-0.229055,-0.089548,0.018056,-0.034648,0.27214264834843616,-0.2765273311897106,-0.04136217480268927
1742920781.522801,-1.158329,0.038674,-0.138348,-0.120292,0.03172,-0.040992,0.27214264834843616,-0.2765273311897106,-0.04136217480268927
1742920781.6028583,-1.091412,0.06539199999999999,-0.171349,-0.114192,-0.044164,-0.037332,0.28675825781935105,-0.2624963460976323,-0.07147033031277404
1742920781.6829689,-1.092876,0.023729,-0.205387,-0.094428,-0.047335999999999996,-0.011956,0.28675825781935105,-0.2624963460976323,-0.07147033031277404
1742920781.763029,-0.81374,0.092842,-0.140849,-0.070272,-0.000732,0.003172,0.28675825781935105,-0.2624963460976323,-0.07147033031277404
1742920781.843142,-0.774578,0.093757,-0.18117,-0.040015999999999996,-0.033184,0.035868,0.28851213095586087,-0.27214264834843616,-0.09660917860274773
1742920781.9232013,-0.9773419999999999,0.062708,-0.28914,-0.02196,-0.056852,0.03172,0.28851213095586087,-0.27214264834843616,-0.09660917860274773
1742920782.003305,-1.0961699999999999,0.127063,-0.27999,0.019764,0.00732,0.01952,0.2794504530838936,-0.2937737503653902,-0.09777842736042093
1742920782.083372,-1.200419,0.071065,-0.15433,0.057828,0.078324,0.04514,0.2794504530838936,-0.2937737503653902,-0.09777842736042093
1742920782.1634777,-1.164917,0.067161,-0.135481,0.07417599999999999,0.031232,0.034892,0.2794504530838936,-0.2937737503653902,-0.09777842736042093
1742920782.2435315,-1.026935,0.156648,-0.201117,0.089548,-0.036112,0.004392,0.2733118971061093,-0.2870505700087694,-0.07950891552177726
1742920782.3236406,-0.874313,0.139507,-0.113094,0.081496,-0.00122,-0.027327999999999998,0.2733118971061093,-0.2870505700087694,-0.07950891552177726
1742920782.4036996,-0.781593,0.060695,-0.12925899999999999,0.055388,0.002928,-0.017568,0.27565039462145574,-0.2826658871674949,-0.05817012569424145
1742920782.4844136,-0.831796,0.074237,-0.188063,0.029523999999999998,-0.010735999999999999,-0.004392,0.27565039462145574,-0.2826658871674949,-0.05817012569424145
1742920782.5638518,-1.0441369999999999,0.063562,-0.257969,0.00244,-0.012444,0.008052,0.27565039462145574,-0.2826658871674949,-0.05817012569424145
1742920782.6439683,-1.073051,0.073017,-0.222467,-0.027327999999999998,0.025863999999999998,-0.01098,0.27360420929552765,-0.2844197603040047,-0.06474714995615317
1742920782.724031,-1.104527,0.008113,-0.163297,-0.030987999999999998,0.036356,-0.012688,0.27360420929552765,-0.2844197603040047,-0.06474714995615317
1742920782.8041408,-1.127036,0.114924,-0.093696,-0.027084,0.008539999999999999,-0.031476,0.27360420929552765,-0.2844197603040047,-0.06474714995615317
1742920782.8841987,-0.972828,0.017751,-0.157319,-0.019032,-0.04758,-0.028548,0.2841274481145864,-0.2665887167494885,-0.07263957907044724
1742920782.9643087,-0.798124,0.056608,-0.145729,-0.058316,-0.025131999999999998,0.024888,0.2841274481145864,-0.2665887167494885,-0.07263957907044724
1742920783.0443673,-0.893894,0.061549,-0.224541,-0.041236,-0.055632,0.034404,0.2917275650394621,-0.2823735749780766,-0.10318620286465946
1742920783.1244712,-1.059204,0.102175,-0.291153,-0.012688,-0.03904,0.013908,0.2917275650394621,-0.2823735749780766,-0.10318620286465946
1742920783.2045763,-1.195783,0.041846,-0.23973,0.033672,0.023667999999999998,0.019275999999999998,0.2917275650394621,-0.2823735749780766,-0.10318620286465946
1742920783.284659,-1.202981,0.045933,-0.183671,0.066124,0.06466,0.058072,0.28734288219818765,-0.2937737503653902,-0.08608593978368898
1742920783.3647225,-1.092266,0.082533,-0.114924,0.08174,0.057828,0.0183,0.28734288219818765,-0.2937737503653902,-0.08608593978368898
1742920783.4448297,-0.9782569999999999,0.116632,-0.10126,0.05246,0.018056,0.016104,0.2797427652733119,-0.3010815551008477,-0.05159310143232973
1742920783.5252998,-0.808006,0.03904,-0.126941,0.03172,-0.013176,-0.0060999999999999995,0.2797427652733119,-0.3010815551008477,-0.05159310143232973
