Timestamp,Accel X,Accel Y,Accel Z,Gyro X,Gyro Y,Gyro Z,Magneto X,Magneto Y,Magneto Z
1742921150.593978,-0.850096,-0.011712,-0.307013,0.043188,-0.017811999999999998,0.012199999999999999,0.2075416544869921,0.07366267173341129,0.18488745980707397
1742921150.6740773,-1.1727859999999999,-0.264984,-0.175863,0.052948,-0.037576,0.012444,0.2075416544869921,0.07366267173341129,0.18488745980707397
1742921150.7541597,-0.8876109999999999,-0.089304,-0.300059,-0.054168,0.010248,-0.03294,0.20374159602455422,0.08067816427945046,0.18693364513300204
1742921150.8342733,-0.979233,-0.041114,-0.216245,-0.050996,-0.011956,0.005612,0.20374159602455422,0.08067816427945046,0.18693364513300204
1742921150.914369,-0.982649,0.031964,-0.315126,-0.051972,-0.008052,0.017568,0.2119263373282666,0.05057000876936568,0.18167202572347266
1742921150.9944582,-1.057923,0.055632,-0.252784,-0.031476,0.007076,0.029768,0.2119263373282666,0.05057000876936568,0.18167202572347266
1742921151.0745122,-0.949587,0.014823,-0.244732,0.0017079999999999999,0.026352,0.0060999999999999995,0.2119263373282666,0.05057000876936568,0.18167202572347266
1742921151.1546402,-0.923662,-0.021471999999999998,-0.194834,0.00976,0.002196,-0.00366,0.21046477638117508,0.05261619409529377,0.1824028061970184
1742921151.234684,-1.005463,-0.038796,-0.199348,-0.027816,-0.022935999999999998,0.009516,0.21046477638117508,0.05261619409529377,0.1824028061970184
1742921151.3205569,-0.9539179999999999,0.069235,-0.236009,-0.053191999999999996,0.004148,-0.010248,0.2087109032446653,0.0461853259280912,0.19029523531131248
1742921151.394876,-1.031266,0.02562,-0.22265,-0.042212,-0.008296,-0.018543999999999998,0.2087109032446653,0.0461853259280912,0.19029523531131248
1742921151.4749324,-0.955565,0.020069,-0.279929,-0.043432,0.002196,-0.022203999999999998,0.2087109032446653,0.0461853259280912,0.19029523531131248
1742921151.5550065,-0.973011,0.016165,-0.245769,-0.045871999999999996,0.004392,-0.006588,0.2057877813504823,0.038877521192633734,0.1977491961414791
1742921151.6350822,-0.9958859999999999,0.059475,-0.24662299999999998,-0.050752,0.005612,-0.015616,0.2057877813504823,0.038877521192633734,0.1977491961414791
1742921151.715191,-0.951844,0.068747,-0.25437,-0.027327999999999998,0.004148,0.006588,0.2057877813504823,0.038877521192633734,0.1977491961414791
1742921151.7952592,-1.001864,0.060573,-0.288774,0.018056,-0.0046359999999999995,0.020739999999999998,0.20111078631978954,0.03244665302543116,0.19555685472084186
1742921151.87536,-1.051213,-0.030317,-0.321836,0.010003999999999999,0.024888,-0.000732,0.20111078631978954,0.03244665302543116,0.19555685472084186
1742921151.9554133,-0.958615,0.03111,-0.239974,-0.055632,0.081496,0.025376,0.19117217187956737,0.014907921660333235,0.21631102016954107
1742921152.035529,-0.867969,0.034282,-0.257115,-0.078812,0.047092,0.05124,0.19117217187956737,0.014907921660333235,0.21631102016954107
1742921152.1155925,-0.908046,0.063196,-0.27022999999999997,-0.070516,-0.016836,0.002196,0.19117217187956737,0.014907921660333235,0.21631102016954107
1742921152.1957018,-0.975024,0.106201,-0.266021,-0.04636,-0.046604,-0.033672,0.19994153756211633,-0.0043846828412744815,0.2090032154340836
1742921152.2757547,-0.9660569999999999,0.126758,-0.266753,-0.02318,-0.034159999999999996,-0.049776,0.19994153756211633,-0.0043846828412744815,0.2090032154340836
1742921152.356513,-1.021079,-0.00488,-0.29487399999999997,0.008539999999999999,-0.030255999999999998,-0.055876,0.205495469161064,0.017538731365097926,0.20608009353990062
1742921152.4359126,-1.01565,0.020191,-0.288652,0.0075639999999999995,-0.0183,-0.034892,0.205495469161064,0.017538731365097926,0.20608009353990062
1742921152.5160322,-0.96685,-0.003965,-0.265838,-0.016104,-0.034648,-0.029768,0.205495469161064,0.017538731365097926,0.20608009353990062
1742921152.5960867,-1.032425,0.004758,-0.243756,-0.033672,-0.041724,-0.000732,0.19847997661502484,0.00964630225080386,0.198626132709734
1742921152.676203,-0.988322,0.03294,-0.252967,-0.031232,0.020739999999999998,0.016104,0.19847997661502484,0.00964630225080386,0.198626132709734
1742921152.756254,-0.974963,0.064111,-0.253577,-0.012931999999999999,0.020252,0.014152,0.2081262788658287,0.00964630225080386,0.19818766442560654
1742921152.8363621,-0.978623,0.083082,-0.272182,0.03294,0.010003999999999999,0.007808,0.2081262788658287,0.00964630225080386,0.19818766442560654
1742921152.916417,-0.88206,0.09589199999999999,-0.282003,0.05246,0.011224,0.017568,0.2081262788658287,0.00964630225080386,0.19818766442560654
1742921152.996528,-0.920978,0.097722,-0.264923,0.079056,-0.034159999999999996,0.0305,0.19964922537269805,0.023677287342882197,0.19321835720549546
1742921153.076584,-0.979538,0.046909,-0.224602,0.10614,-0.064904,0.012444,0.19964922537269805,0.023677287342882197,0.19321835720549546
1742921153.1566923,-1.047919,0.016653,-0.21246299999999999,0.1037,-0.062708,-0.034648,0.19964922537269805,0.023677287342882197,0.19321835720549546
1742921153.2367725,-1.061949,-0.034221,-0.180987,0.066124,0.018788,-0.015372,0.21251096170710318,0.061385559777842734,0.17714118678748902
1742921153.3168616,-1.028094,-0.020069,-0.188978,0.005612,0.05368,0.022448,0.21251096170710318,0.061385559777842734,0.17714118678748902
1742921153.396933,-0.9706319999999999,0.034221,-0.185074,-0.017568,0.01098,0.012444,0.21718795673779598,0.05320081847413037,0.17801812335574393
1742921153.477023,-1.033096,0.027816,-0.157563,-0.002196,-0.013908,-0.000488,0.21718795673779598,0.05320081847413037,0.17801812335574393
1742921153.5570886,-1.012539,0.001403,-0.152805,0.008784,0.015127999999999999,0.0068319999999999995,0.21718795673779598,0.05320081847413037,0.17801812335574393
1742921153.6371596,-1.009306,-0.017873,-0.196847,0.008539999999999999,0.024644,0.014152,0.2090032154340836,0.04793919906460099,0.18079508915521778
1742921153.7172499,-0.979721,-0.014395999999999999,-0.20630199999999999,0.007808,0.030012,0.010735999999999999,0.2090032154340836,0.04793919906460099,0.18079508915521778
1742921153.7986984,-1.013393,-0.008357,-0.188856,0.003172,0.010492,0.002196,0.20198772288804442,0.049108447822274186,0.19029523531131248
1742921153.8781545,-1.013759,-0.012565999999999999,-0.182695,0.007808,0.003172,0.002928,0.20198772288804442,0.049108447822274186,0.19029523531131248
1742921153.961909,-0.9745969999999999,-0.005246,-0.19117399999999998,0.012444,0.0068319999999999995,0.003904,0.20198772288804442,0.049108447822274186,0.19029523531131248
1742921154.0413866,-0.9526979999999999,-0.014091,-0.224236,0.017324,-0.00366,-0.002196,0.2081262788658287,0.052323881905875474,0.19117217187956737
1742921154.1241884,-0.979355,-0.018605,-0.241072,0.021471999999999998,-0.017568,-0.0017079999999999999,0.2081262788658287,0.052323881905875474,0.19117217187956737
1742921154.20235,-1.030046,-0.006588,-0.247843,0.025131999999999998,-0.017811999999999998,0.002196,0.19818766442560654,0.06313943291435253,0.18430283542823736
1742921154.2817385,-1.035475,0.020069,-0.247233,0.034648,0.025376,0.00244,0.19818766442560654,0.06313943291435253,0.18430283542823736
1742921154.363223,-0.9834419999999999,0.044042,-0.2379,0.064416,0.01342,0.01952,0.19818766442560654,0.06313943291435253,0.18430283542823736
1742921154.4485328,-0.94123,0.030622,-0.24235299999999999,0.08588799999999999,0.018543999999999998,0.035868,0.2087109032446653,0.08097047646886875,0.1720257234726688
1742921154.5220485,-0.971364,0.047458,-0.229848,0.10004,0.0034159999999999998,0.032695999999999996,0.2087109032446653,0.08097047646886875,0.1720257234726688
1742921154.6029665,-0.973743,0.064843,-0.238815,0.114436,-0.00122,0.03294,0.2087109032446653,0.08097047646886875,0.1720257234726688
1742921154.683032,-0.968619,0.061061,-0.26474,0.1159,0.0026839999999999998,0.044407999999999996,0.20403390821397252,0.09470914937152879,0.17041800643086816
1742921154.7629423,-0.983625,0.041358,-0.23802199999999998,0.103944,-0.0068319999999999995,0.039772,0.20403390821397252,0.09470914937152879,0.17041800643086816
1742921154.8491201,-1.012295,0.01952,-0.286456,0.094916,-0.034892,0.024156,0.21280327389652148,0.11020169541069863,0.14674071908798597
1742921154.9226623,-0.93635,0.005795,-0.274378,0.094184,-0.007808,0.015127999999999999,0.21280327389652148,0.11020169541069863,0.14674071908798597
1742921155.0028176,-0.970388,0.018361,-0.291946,0.087352,-0.015616,0.01464,0.21280327389652148,0.11020169541069863,0.14674071908798597
1742921155.0836828,-0.997045,0.048678,-0.279197,0.081008,-0.007808,0.0026839999999999998,0.22771119555685473,0.12920198772288805,0.13402513884828998
1742921155.163806,-1.007903,0.051057,-0.287188,0.069052,0.004392,-0.012199999999999999,0.22771119555685473,0.12920198772288805,0.13402513884828998
1742921155.251307,-0.950075,0.067649,-0.278099,0.057096,0.035868,-0.001952,0.21280327389652148,0.15054077755042386,0.1359251680795089
1742921155.3256042,-0.969778,0.065514,-0.263642,0.048799999999999996,0.023424,0.005124,0.21280327389652148,0.15054077755042386,0.1359251680795089
1742921155.404814,-1.034133,0.006893,-0.240218,0.0427,0.0046359999999999995,0.0060999999999999995,0.21280327389652148,0.15054077755042386,0.1359251680795089
1742921155.4836242,-0.99125,-0.06527,-0.23863199999999998,0.041968,0.013908,0.022203999999999998,0.21572639579070446,0.15200233849751535,0.12467114878690441
1742921155.5636532,-0.952637,-0.089792,-0.231129,0.031964,0.023424,0.037332,0.21572639579070446,0.15200233849751535,0.12467114878690441
1742921155.651862,-0.9955809999999999,-0.076372,-0.223504,0.04392,0.013663999999999999,0.023912,0.22069570301081556,0.160479391990646,0.12467114878690441
1742921155.7246168,-0.972645,-0.055022,-0.24729399999999999,0.04392,0.013663999999999999,0.023912,0.22069570301081556,0.160479391990646,0.12467114878690441
1742921155.804557,-0.981856,-0.027511,-0.238571,0.062708,-0.003904,0.015372,0.22069570301081556,0.160479391990646,0.12467114878690441
1742921155.8841736,-0.9657519999999999,-0.020313,-0.227591,0.060756,-0.009271999999999999,0.015616,0.22069570301081556,0.1639871382636656,0.11356328558900906
1742921155.9650824,-0.966728,-0.003538,-0.235765,0.056852,-0.00122,0.02196,0.22069570301081556,0.1639871382636656,0.11356328558900906
1742921156.0525734,-0.982588,-0.012322,-0.261629,0.060268,-0.001464,0.021471999999999998,0.21894182987430577,0.17071031862028646,0.10143232972814967
1742921156.1255484,-0.983686,-0.02318,-0.291397,0.060268,0.00366,0.018543999999999998,0.21894182987430577,0.17071031862028646,0.10143232972814967
1742921156.2047153,-0.990335,-0.046238,-0.232593,0.048799999999999996,0.014395999999999999,0.02928,0.21894182987430577,0.17071031862028646,0.10143232972814967
1742921156.293682,-1.053958,-0.008601,-0.25071,0.033428,-0.0026839999999999998,0.031964,0.22858813212510962,0.16895644548377667,0.09631686641332944
1742921156.36597,-1.0288869999999999,0.00061,-0.222833,0.024888,0.0183,0.026595999999999998,0.22858813212510962,0.16895644548377667,0.09631686641332944
1742921156.4475162,-0.971181,-0.018117,-0.273036,0.029768,0.009028,0.011224,0.22858813212510962,0.16895644548377667,0.09631686641332944
1742921156.5252178,-0.926956,-0.020801,-0.24509799999999998,0.044407999999999996,0.019032,0.01342,0.20081847413037124,0.17041800643086816,0.08944752996199941
1742921156.6052694,-1.009672,-0.015006,-0.255346,0.027084,-0.008052,-0.00122,0.20081847413037124,0.17041800643086816,0.08944752996199941
1742921156.6853483,-0.9989359999999999,-0.003904,-0.258274,0.0034159999999999998,0.012444,-0.006588,0.13212510961707102,0.1616486407483192,0.07892429114294067
1742921156.7662528,-0.96502,0.005795,-0.246745,-0.018056,0.023667999999999998,-0.012688,0.13212510961707102,0.1616486407483192,0.07892429114294067
1742921156.846133,-0.969534,0.031903,-0.275476,-0.028791999999999998,0.011956,0.001952,0.13212510961707102,0.1616486407483192,0.07892429114294067
1742921156.9257433,-0.957517,0.018543999999999998,-0.289201,-0.009516,0.006344,0.011956,0.14498684595147618,0.1160479391990646,0.060947091493715286
1742921157.0058832,-0.949892,-0.017506999999999998,-0.286761,0.011956,-0.0034159999999999998,-0.000732,0.14498684595147618,0.1160479391990646,0.060947091493715286
1742921157.0867026,-0.978745,-0.024095,-0.284138,0.014395999999999999,-0.0060999999999999995,-0.002928,0.15960245542239113,0.09938614440222157,0.08184741303712365
1742921157.1661131,-0.987163,-0.01769,-0.28243,0.012199999999999999,0.0068319999999999995,0.011712,0.15960245542239113,0.09938614440222157,0.08184741303712365
1742921157.2470143,-0.970144,-0.016226,-0.285785,0.012444,0.012444,0.00732,0.15960245542239113,0.09938614440222157,0.08184741303712365
1742921157.327579,-0.9581879999999999,-0.022387,-0.295423,0.00732,0.005612,0.008052,0.15784858228588133,0.08944752996199941,0.08754750073078048
1742921157.4064295,-0.9548329999999999,-0.018056,-0.298778,0.009028,-0.000732,0.001952,0.15784858228588133,0.08944752996199941,0.08754750073078048
1742921157.486587,-0.97539,-0.015616,-0.299571,0.011224,-0.006588,-0.002196,0.19438760596316867,0.09383221280327389,0.10420929552762351
1742921157.5694637,-0.978928,-0.013663999999999999,-0.299998,0.009028,-0.001952,-0.000732,0.19438760596316867,0.09383221280327389,0.10420929552762351
1742921157.6467912,-0.952881,-0.009089,-0.298107,0.0060999999999999995,0.003172,0.004392,0.19438760596316867,0.09383221280327389,0.10420929552762351
1742921157.7277234,-0.966728,-0.005856,-0.298839,0.0,-0.0034159999999999998,0.00732,0.21806489330605086,0.10757088570593394,0.10990938322128033
1742921157.807011,-0.966118,-0.0028669999999999998,-0.29853399999999997,-0.007076,-0.005856,0.009516,0.21806489330605086,0.10757088570593394,0.10990938322128033
1742921157.8871796,-0.9575779999999999,0.0044529999999999995,-0.299205,-0.009516,-0.004148,0.014395999999999999,0.21806489330605086,0.10757088570593394,0.11867874890382929
1742921157.9684927,-0.95038,0.016042999999999998,-0.297253,-0.011224,-0.00488,0.015372,0.2303420052616194,0.1180941245249927,0.11867874890382929
1742921158.0473595,-0.988383,0.025863999999999998,-0.306403,-0.008539999999999999,-0.008052,0.013176,0.2303420052616194,0.1180941245249927,0.11867874890382929
1742921158.1282623,-0.9803919999999999,0.028426,-0.31585799999999997,-0.00366,0.004392,0.007808,0.2329728149663841,0.1151710026308097,0.12014030985092078
1742921158.207587,-0.955931,0.025498,-0.31537,-0.0046359999999999995,0.004392,0.0017079999999999999,0.2329728149663841,0.1151710026308097,0.12014030985092078
1742921158.2877386,-0.965874,0.043188,-0.314638,-0.009516,-0.00732,0.005612,0.2329728149663841,0.1151710026308097,0.12014030985092078
1742921158.3690844,-0.962275,0.060146,-0.296948,-0.00732,-0.005856,0.0075639999999999995,0.2774042677579655,0.09909383221280327,0.12510961707103185
1742921158.4480686,-0.946171,0.044164,-0.291519,0.0,-0.00732,0.008052,0.2774042677579655,0.09909383221280327,0.12510961707103185
1742921158.5287945,-0.976183,0.040565,-0.29951,0.00244,-0.00732,0.010248,0.2800350774627302,0.10201695410698626,0.11444022215726396
1742921158.6089942,-0.9678869999999999,0.061732,-0.30506099999999997,0.00244,-0.00366,0.007076,0.2800350774627302,0.10201695410698626,0.11444022215726396
1742921158.6952274,-0.950136,0.101809,-0.316712,0.030987999999999998,-0.0053679999999999995,-0.012444,0.2800350774627302,0.10201695410698626,0.11444022215726396
1742921158.7684467,-0.950136,0.101809,-0.316712,0.042456,-0.016836,-0.0046359999999999995,0.29260450160771706,0.11370944168371822,0.1068401052323882
1742921158.8493419,-0.950746,0.126514,-0.313967,0.049288,-0.029523999999999998,0.011712,0.29260450160771706,0.11370944168371822,0.1068401052323882
1742921158.9286358,-0.957517,0.113521,-0.311466,0.059292,-0.022692,0.005612,0.3002046185325928,0.11838643671441099,0.08959368605670856
1742921159.008806,-0.997533,0.084302,-0.308904,0.066856,-0.020252,0.0060999999999999995,0.3002046185325928,0.11838643671441099,0.08959368605670856
1742921159.096127,-0.967155,0.059902,-0.291153,0.073688,0.001952,0.019032,0.3002046185325928,0.11838643671441099,0.08959368605670856
1742921159.1697693,-0.987895,0.048007,-0.28548,0.072712,0.0017079999999999999,0.026108,0.29611224788073665,0.12335574393452207,0.08433206664717918
1742921159.2499797,-0.988505,0.029158,-0.290848,0.072468,0.002928,0.023667999999999998,0.29611224788073665,0.12335574393452207,0.08433206664717918
1742921159.3351002,-0.952027,0.014761999999999999,-0.28468699999999997,0.069296,0.00488,0.02318,0.2966968722595732,0.12423268050277697,0.05904706226249635
1742921159.411632,-0.974963,0.022631,-0.287005,0.07076,-0.00976,0.027572,0.2966968722595732,0.12423268050277697,0.05904706226249635
1742921159.4946487,-0.935923,0.021594,-0.274317,0.084424,-0.011224,0.027327999999999998,0.2966968722595732,0.12423268050277697,0.05904706226249635
1742921159.569653,-0.97661,0.000732,-0.28243,0.09881999999999999,-0.039284,0.027816,0.3086816720257235,0.13417129494299912,0.03376205787781351
1742921159.6497781,-0.952942,-0.011407,-0.300059,0.105652,-0.037087999999999996,0.02562,0.3086816720257235,0.13417129494299912,0.03376205787781351
1742921159.729818,-0.93452,-0.009333,-0.311283,0.10248,-0.022692,0.02684,0.3086816720257235,0.13417129494299912,0.03376205787781351
1742921159.8107474,-0.9516,-0.010858,-0.312137,0.097356,-0.007808,0.026108,0.31452791581408945,0.12394036831335867,-0.001607717041800643
1742921159.8952327,-0.98942,-0.010369999999999999,-0.320982,0.085156,-0.000976,0.021228,0.31452791581408945,0.12394036831335867,-0.001607717041800643
1742921159.9707415,-1.060241,0.012383,-0.30719599999999997,0.073444,0.015372,0.024156,0.3168664133294358,0.1166325635779012,0.0004384682841274481
1742921160.0505712,-1.059021,0.02989,-0.259067,0.07002799999999999,0.031476,0.030987999999999998,0.3168664133294358,0.1166325635779012,0.0004384682841274481
1742921160.13053,-1.020896,0.054778,-0.250161,0.064904,0.016836,0.025863999999999998,0.3168664133294358,0.1166325635779012,0.0004384682841274481
1742921160.2114258,-0.983625,0.058987,-0.216855,0.056119999999999996,0.000976,0.023912,0.32826658871674946,0.10990938322128033,-0.012423268050277696
1742921160.3009965,-0.839909,0.043676,-0.244122,0.042943999999999996,0.027327999999999998,0.011956,0.32826658871674946,0.10990938322128033,-0.012423268050277696
1742921160.3718498,-0.8945649999999999,0.032147,-0.254431,0.027084,-0.000488,0.001464,0.3285589009061678,0.11429406606255481,-0.013007892429114295
1742921160.4522161,-0.941047,0.04392,-0.298656,0.016104,-0.008784,-0.006344,0.3285589009061678,0.11429406606255481,-0.013007892429114295
1742921160.531077,-1.014186,0.04453,-0.302743,0.003172,0.0,-0.009271999999999999,0.3285589009061678,0.11429406606255481,-0.013007892429114295
1742921160.6193242,-1.052921,0.066063,-0.28609,-0.016104,0.015372,-0.003904,0.3262204033908214,0.11750950014615609,-0.020315697164571763
1742921160.6913202,-1.093059,0.002257,-0.253211,-0.02318,0.0017079999999999999,0.012931999999999999,0.3262204033908214,0.11750950014615609,-0.020315697164571763
1742921160.7714493,-0.992653,0.006527,-0.254858,-0.019275999999999998,0.007808,0.027327999999999998,0.3265127155802397,0.10143232972814967,-0.016954106986261326
1742921160.851489,-0.88816,-0.0071979999999999995,-0.233264,-0.020984,0.029768,0.021228,0.3265127155802397,0.10143232972814967,-0.016954106986261326
1742921160.932403,-0.9577,0.000305,-0.24820899999999999,-0.023912,-0.037576,-0.013663999999999999,0.3265127155802397,0.10143232972814967,-0.016954106986261326
1742921161.0123239,-0.9441579999999999,0.013115,-0.26596,-0.013176,-0.029768,-0.006588,0.3224203449283835,0.11370944168371822,-0.02090032154340836
1742921161.091951,-0.868274,0.030683,-0.268034,0.000488,0.012199999999999999,-0.00488,0.3224203449283835,0.11370944168371822,-0.02090032154340836
1742921161.1728678,-0.917135,0.027084,-0.304329,0.0046359999999999995,0.008052,-0.0034159999999999998,0.31920491084478225,0.11020169541069863,-0.016807950891552178
1742921161.2550993,-0.997777,0.034526,-0.29212899999999997,0.011956,0.015616,0.0075639999999999995,0.31920491084478225,0.11020169541069863,-0.016807950891552178
1742921161.3332605,-1.104222,0.040504,-0.257725,0.02318,-0.001952,0.017811999999999998,0.31920491084478225,0.11020169541069863,-0.016807950891552178
1742921161.412406,-1.169858,0.048861,-0.246074,0.025131999999999998,-0.024888,0.011712,0.3212510961707103,0.10727857351651564,-0.022215726395790704
1742921161.4925568,-0.981795,0.074603,-0.194224,0.024156,0.015616,0.010735999999999999,0.3212510961707103,0.10727857351651564,-0.022215726395790704
1742921161.5809913,-1.013088,0.079483,-0.226737,0.011956,0.008052,0.00366,0.3212510961707103,0.10727857351651564,-0.022215726395790704
1742921161.6527622,-0.841922,0.072773,-0.259982,0.006588,0.008052,0.00366,0.32826658871674946,0.11254019292604502,-0.024700380005846245
1742921161.7329898,-0.793915,0.047397,-0.276513,0.00976,-0.024399999999999998,-0.021471999999999998,0.32826658871674946,0.11254019292604502,-0.024700380005846245
1742921161.8138192,-1.013881,0.06478199999999999,-0.262178,-0.012199999999999999,-0.009516,-0.0017079999999999999,0.3232972814966384,0.11867874890382929,-0.03653902367728734
1742921161.8932261,-1.075491,0.073017,-0.271572,-0.028548,0.001952,0.011467999999999999,0.3232972814966384,0.11867874890382929,-0.03653902367728734
1742921161.981529,-1.0885449999999999,0.020923,-0.25254,-0.016836,-0.016592,-0.004148,0.3232972814966384,0.11867874890382929,-0.03653902367728734
1742921162.0533721,-1.090619,-0.009516,-0.216245,-0.008052,-0.026595999999999998,-0.008539999999999999,0.31862028646594565,0.12218649517684887,-0.035662087109032445
1742921162.1335049,-0.979599,-0.016347999999999998,-0.192638,-0.017079999999999998,0.02318,-0.012688,0.31862028646594565,0.12218649517684887,-0.035662087109032445
1742921162.2135391,-0.968314,0.007137,-0.196603,-0.022448,-0.007076,-0.008539999999999999,0.3285589009061678,0.13154048523823444,-0.02747734580532008
1742921162.294452,-0.881938,0.018056,-0.22014899999999998,-0.010003999999999999,0.000976,-0.000732,0.3285589009061678,0.13154048523823444,-0.02747734580532008
1742921162.37494,-0.889807,0.008967,-0.234118,0.0034159999999999998,-0.021716,-0.016836,0.3285589009061678,0.13154048523823444,-0.02747734580532008
1742921162.4539158,-0.950685,-0.00061,-0.26291,-0.006588,-0.010248,-0.023424,0.32826658871674946,0.12920198772288805,-0.033031277404267756
1742921162.5399692,-0.988078,0.020984,-0.24827,-0.021471999999999998,0.030744,0.028304,0.32826658871674946,0.12920198772288805,-0.033031277404267756
1742921162.6141117,-1.027545,0.049227,-0.215757,-0.022935999999999998,0.019764,0.049288,0.3332358959368606,0.1160479391990646,-0.03390821397252265
1742921162.695008,-1.180838,0.037759,-0.205753,-0.004392,-0.05124,0.036356,0.3332358959368606,0.1160479391990646,-0.03390821397252265
1742921162.7750695,-1.028826,0.057706,-0.171227,0.013663999999999999,-0.026108,0.0183,0.3332358959368606,0.1160479391990646,-0.03390821397252265
1742921162.8552697,-0.982039,0.053314,-0.195139,0.013663999999999999,-0.02196,-0.006588,0.33382052031569714,0.10757088570593394,-0.04443145279158141
1742921162.9401457,-0.9012749999999999,0.057034999999999995,-0.219905,0.017079999999999998,0.00244,-0.017811999999999998,0.33382052031569714,0.10757088570593394,-0.04443145279158141
1742921163.0154645,-0.863089,0.035258,-0.242902,0.017568,0.023424,-0.033672,0.33382052031569714,0.10757088570593394,-0.04443145279158141
1742921163.0948384,-0.951966,0.027694,-0.271511,-0.0017079999999999999,0.024888,-0.030255999999999998,0.3314820228003508,0.12510961707103185,-0.035808243203741597
1742921163.1748767,-0.988932,0.021471999999999998,-0.26034799999999997,-0.029523999999999998,0.048556,-0.012199999999999999,0.3314820228003508,0.12510961707103185,-0.035808243203741597
1742921163.2557971,-1.128256,0.019642,-0.229055,-0.023912,-0.0549,-0.017079999999999998,0.33352820812627887,0.13475591932183573,-0.038292896813797134
1742921163.3502452,-0.9046299999999999,-0.034465,-0.20136099999999998,-0.00732,0.044896,-0.012199999999999999,0.33352820812627887,0.13475591932183573,-0.038292896813797134
1742921163.4162707,-0.951722,-0.04087,-0.191357,-0.00122,-0.007808,-0.019032,0.33352820812627887,0.13475591932183573,-0.038292896813797134
1742921163.5019333,-0.88389,-0.010003999999999999,-0.205448,-0.002196,-0.015616,-0.005612,0.3259280912014031,0.13270973399590763,-0.04209295527623502
1742921163.5776641,-0.817522,0.024827,-0.21551299999999998,0.0068319999999999995,0.008052,0.00488,0.3259280912014031,0.13270973399590763,-0.04209295527623502
1742921163.655621,-0.952881,0.014457,-0.23424,0.010248,-0.0075639999999999995,0.009516,0.3241742180648933,0.13300204618532593,-0.031131248173048815
1742921163.7364268,-1.0322419999999999,-0.012505,-0.234118,0.01586,0.0068319999999999995,0.017568,0.3241742180648933,0.13300204618532593,-0.031131248173048815
1742921163.8165994,-1.113433,-0.0055509999999999995,-0.22136899999999998,0.028059999999999998,0.001952,0.0068319999999999995,0.3241742180648933,0.13300204618532593,-0.031131248173048815
1742921163.9026787,-1.184925,0.034831,-0.233874,0.039528,-0.0183,0.013663999999999999,0.3244665302543116,0.12598655363928676,-0.036246711487869045
1742921163.9760559,-0.985943,0.029828999999999998,-0.174277,0.037576,0.03294,0.019032,0.3244665302543116,0.12598655363928676,-0.036246711487869045
1742921164.0562143,-0.958127,0.01464,-0.211487,0.016104,-0.0183,0.00488,0.329728149663841,0.12335574393452207,-0.0349313066354867
1742921164.137063,-0.817034,0.02013,-0.252052,0.000976,0.016592,-0.0034159999999999998,0.329728149663841,0.12335574393452207,-0.0349313066354867
1742921164.21697,-0.831125,0.045871999999999996,-0.262239,-0.002928,0.020252,0.000976,0.329728149663841,0.12335574393452207,-0.0349313066354867
1742921164.3033736,-0.984418,0.04758,-0.264801,-0.004392,0.000244,0.004148,0.3346974568839521,0.12481730488161356,-0.02543116047939199
1742921164.3782518,-1.0368169999999999,0.05246,-0.263215,-0.016592,0.032695999999999996,0.0060999999999999995,0.3346974568839521,0.12481730488161356,-0.02543116047939199
1742921164.4636426,-1.169553,0.002074,-0.25851799999999997,-0.023424,-0.0075639999999999995,0.016592,0.3256357790119848,0.1169248757673195,-0.029961999415375622
1742921164.5377192,-1.125694,0.005246,-0.245647,-0.014884,-0.016592,-0.006588,0.3256357790119848,0.1169248757673195,-0.029961999415375622
1742921164.617908,-0.911218,-0.048129,-0.205204,-0.013908,0.04636,-0.003172,0.3256357790119848,0.1169248757673195,-0.029961999415375622
1742921164.6979966,-0.9825269999999999,-0.027632999999999998,-0.194102,-0.021228,-0.023667999999999998,-0.00732,0.3300204618532593,0.13037123648056123,-0.027038877521192634
1742921164.778153,-0.836615,0.017629,-0.24766,-0.009028,0.003904,-0.011224,0.3300204618532593,0.13037123648056123,-0.027038877521192634
1742921164.865857,-0.889746,0.028182,-0.289872,-0.011712,-0.0053679999999999995,0.007076,0.3300204618532593,0.13037123648056123,-0.031423560362467115
1742921164.938148,-1.031205,0.024583,-0.269864,-0.001952,-0.011224,0.01952,0.3218357205495469,0.12335574393452207,-0.031423560362467115
1742921165.0178597,-1.116605,-0.0023179999999999997,-0.259921,0.013663999999999999,-0.00976,0.014395999999999999,0.3218357205495469,0.12335574393452207,-0.031423560362467115
1742921165.0990498,-1.163758,0.047397,-0.24509799999999998,0.00732,-0.024888,0.009516,0.3232972814966384,0.12540192926045016,-0.03025431160479392
1742921165.1788218,-0.963678,0.061671,-0.189161,0.019032,0.012931999999999999,0.013176,0.3232972814966384,0.12540192926045016,-0.03025431160479392
1742921165.2582572,-0.964898,0.037576,-0.17885199999999998,0.026352,-0.021716,0.011224,0.3232972814966384,0.12540192926045016,-0.03025431160479392
1742921165.339714,-0.892674,0.010248,-0.227896,0.01586,-0.010248,0.0017079999999999999,0.3367436422098802,0.1166325635779012,-0.04136217480268927
1742921165.4228003,-0.8468019999999999,0.022143,-0.268339,0.010003999999999999,0.021228,-0.003172,0.3367436422098802,0.1166325635779012,-0.04136217480268927
1742921165.4985166,-0.951295,0.020984,-0.281881,0.012688,0.00366,-0.010735999999999999,0.32826658871674946,0.12014030985092078,-0.035662087109032445
1742921165.5786443,-1.016931,-0.002989,-0.24729399999999999,-0.0026839999999999998,0.021228,-0.005612,0.32826658871674946,0.12014030985092078,-0.035662087109032445
1742921165.6591034,-1.074881,-0.005429,-0.219051,-0.033916,0.0053679999999999995,0.000488,0.32826658871674946,0.12014030985092078,-0.035662087109032445
1742921165.7397335,-1.193404,-0.023485,-0.19580999999999998,-0.04514,-0.046604,-0.0017079999999999999,0.32885121309558607,0.11955568547208419,-0.04033908213972523
1742921165.8218727,-0.93879,-0.043127,-0.163175,-0.0427,0.01342,-0.02196,0.32885121309558607,0.11955568547208419,-0.04033908213972523
1742921165.8992045,-0.991189,-0.012017,-0.180438,-0.036844,-0.02562,-0.017324,0.32271265711780184,0.13037123648056123,-0.035808243203741597
1742921165.9793358,-0.882304,0.026900999999999998,-0.215879,-0.01952,0.0,-0.008539999999999999,0.32271265711780184,0.13037123648056123,-0.035808243203741597
1742921166.0593705,-0.819596,0.040748,-0.265228,-0.001952,0.021228,-0.014395999999999999,0.32271265711780184,0.13037123648056123,-0.035808243203741597
1742921166.1395285,-0.912804,0.015555,-0.289445,0.00732,-0.0060999999999999995,-0.0026839999999999998,0.3253434668225665,0.12657117801812334,-0.03259280912014031
1742921166.2211852,-1.1241079999999999,0.02379,-0.22630999999999998,0.020984,0.00244,0.024156,0.3253434668225665,0.12657117801812334,-0.03259280912014031
1742921166.3002923,-1.174189,0.025742,-0.182451,0.03172,-0.021228,0.01342,0.3253434668225665,0.12657117801812334,-0.03259280912014031
1742921166.3812757,-1.025471,-0.00061,-0.137311,0.031232,0.000732,-0.0017079999999999999,0.3259280912014031,0.12364805612394036,-0.0461853259280912
1742921166.4600446,-0.963068,-0.00061,-0.157319,0.018788,-0.00122,0.02318,0.3259280912014031,0.12364805612394036,-0.0461853259280912
1742921166.5442772,-0.861991,0.006344,-0.228811,0.00976,-0.002196,0.017568,0.33031277404267756,0.12043262204033908,-0.03960830166617948
1742921166.6202676,-0.813191,0.009211,-0.260287,0.011224,0.022935999999999998,0.0,0.33031277404267756,0.12043262204033908,-0.03960830166617948
1742921166.7004688,-0.9295789999999999,0.021838,-0.28529699999999997,0.0075639999999999995,0.008052,-0.01342,0.33031277404267756,0.12043262204033908,-0.03960830166617948
1742921166.7812374,-1.020652,0.015372,-0.265045,-0.0060999999999999995,0.022692,-0.0034159999999999998,0.33645133002046185,0.12569424144986846,-0.038877521192633734
1742921166.8606653,-1.105747,-0.003111,-0.226432,-0.022448,0.007808,0.0053679999999999995,0.33645133002046185,0.12569424144986846,-0.038877521192633734
1742921166.943198,-1.2738019999999999,-0.018483,-0.219173,-0.027816,-0.055632,-0.013908,0.3387898275358082,0.12335574393452207,-0.03975445776088863
1742921167.0208874,-0.993568,-0.029523999999999998,-0.190381,-0.020496,0.018056,-0.020984,0.3387898275358082,0.12335574393452207,-0.03975445776088863
1742921167.1010149,-0.932507,-0.047519,-0.172203,-0.012931999999999999,0.030987999999999998,-0.012688,0.3387898275358082,0.12335574393452207,-0.03975445776088863
1742921167.1810946,-0.843447,-0.003294,-0.195627,-0.01952,0.0060999999999999995,-0.011956,0.33235895936860566,0.13446360713241742,-0.028500438468284126
1742921167.2620387,-0.772016,0.02318,-0.229177,-0.022935999999999998,0.005612,-0.002928,0.33235895936860566,0.13446360713241742,-0.028500438468284126
1742921167.349458,-0.907192,0.008845,-0.25973799999999997,-0.023424,-0.019275999999999998,0.009516,0.3428821981876644,0.13241742180648933,-0.021631102016954108
1742921167.4228454,-1.039196,0.015189,-0.271023,-0.024156,-0.005124,0.015616,0.3428821981876644,0.13241742180648933,-0.021631102016954108
1742921167.5016198,-1.108248,0.019825,-0.2501,-0.012688,-0.000976,0.024888,0.3428821981876644,0.13241742180648933,-0.021631102016954108
1742921167.5825093,-1.211521,0.015189,-0.195078,0.011956,-0.04758,0.0053679999999999995,0.343466822566501,0.12130955860859398,-0.03390821397252265
1742921167.6618817,-1.088301,0.039223,-0.177876,0.03172,-0.026108,0.0075639999999999995,0.343466822566501,0.12130955860859398,-0.03390821397252265
1742921167.7420018,-0.949587,0.000366,-0.190015,0.018543999999999998,-0.001952,0.01464,0.33177433498976905,0.1160479391990646,-0.03127740426775796
1742921167.8221495,-0.750483,0.010675,-0.18531799999999998,0.003172,0.057096,0.0017079999999999999,0.33177433498976905,0.1160479391990646,-0.03127740426775796
1742921167.9022298,-0.883585,0.016409,-0.222711,0.006344,-0.0034159999999999998,-0.01342,0.33177433498976905,0.1160479391990646,-0.03127740426775796
1742921167.9831274,-1.008574,-0.006039,-0.248758,-0.002928,-0.0068319999999999995,-0.022935999999999998,0.3311897106109325,0.12978661210172465,-0.02104647763811751
1742921168.0696933,-1.075613,-0.021106,-0.290299,-0.032208,0.007808,-0.025863999999999998,0.3311897106109325,0.12978661210172465,-0.02104647763811751
1742921168.1427054,-1.119777,-0.02562,-0.234362,-0.042456,-0.00122,-0.00488,0.3311897106109325,0.12978661210172465,-0.02104647763811751
1742921168.2227807,-1.068781,0.0021349999999999997,-0.216794,-0.033672,-0.0183,-0.016104,0.3244665302543116,0.12978661210172465,-0.01636948260742473
1742921168.3107774,-0.93879,-0.045566999999999996,-0.191296,-0.000732,0.0060999999999999995,-0.008539999999999999,0.3244665302543116,0.12978661210172465,-0.01636948260742473
1742921168.3842728,-0.939888,-0.019275999999999998,-0.177571,0.02318,-0.033428,0.001952,0.3232972814966384,0.137971353405437,-0.022215726395790704
1742921168.4673765,-0.844667,0.002257,-0.192394,0.02318,-0.016592,0.001952,0.3232972814966384,0.137971353405437,-0.022215726395790704
1742921168.5431848,-0.8836459999999999,0.008173999999999999,-0.266143,0.0068319999999999995,-0.028548,0.01342,0.3232972814966384,0.137971353405437,-0.022215726395790704
1742921168.6240609,-0.936777,0.059597,-0.365817,0.009028,-0.009028,0.036356,0.3224203449283835,0.12335574393452207,-0.03332358959368606
1742921168.7059355,-1.143811,0.011895,-0.276635,0.06417199999999999,-0.00244,0.022935999999999998,0.3224203449283835,0.12335574393452207,-0.03332358959368606
1742921168.7835915,-1.203713,-0.073139,-0.188795,0.072468,-0.016836,-0.011224,0.33177433498976905,0.12394036831335867,-0.04866997953814674
1742921168.865933,-1.104039,-0.045079,-0.181414,0.027084,-0.0034159999999999998,0.042943999999999996,0.33177433498976905,0.12394036831335867,-0.04866997953814674
1742921168.9438055,-0.9280539999999999,0.013359,-0.156465,-0.007076,0.038551999999999996,0.031476,0.33177433498976905,0.12394036831335867,-0.04866997953814674
1742921169.024698,-0.9211,0.029585,-0.14774199999999998,-0.0034159999999999998,-0.008052,-0.018788,0.3162817889505992,0.13007892429114293,-0.04370067231803566
1742921169.1040354,-0.892735,0.028853,-0.157502,0.001952,-0.005612,-0.040748,0.3162817889505992,0.13007892429114293,-0.04370067231803566
1742921169.184215,-0.859856,0.023851,-0.182207,-0.027084,0.029768,-0.007076,0.3142356036246711,0.13446360713241742,-0.029231218941829874
1742921169.267938,-1.085434,0.051667,-0.21892899999999998,-0.035868,0.0060999999999999995,0.018543999999999998,0.3142356036246711,0.13446360713241742,-0.029231218941829874
1742921169.3456805,-1.288808,0.047153,-0.23363,-0.018056,-0.057583999999999996,0.03172,0.3142356036246711,0.13446360713241742,-0.029231218941829874
1742921169.4244976,-1.0784799999999999,-0.061061,-0.191967,0.014152,-0.00732,-0.0017079999999999999,0.3162817889505992,0.12189418298743057,-0.049108447822274186
1742921169.504694,-0.922076,-0.099979,-0.166286,0.021471999999999998,0.050263999999999996,-0.00976,0.3162817889505992,0.12189418298743057,-0.049108447822274186
1742921169.5897498,-0.892064,-0.036051,-0.18812399999999999,0.004392,-0.017568,-0.012931999999999999,0.3066354866997954,0.12861736334405144,-0.05100847705349313
1742921169.66564,-0.856501,-0.010675,-0.205265,0.003904,-0.013176,-0.002928,0.3066354866997954,0.12861736334405144,-0.05100847705349313
1742921169.7482965,-0.914573,-0.029768,-0.27358499999999997,-0.014884,-0.024644,-0.010248,0.3066354866997954,0.12861736334405144,-0.05100847705349313
1742921169.8273463,-0.931287,-0.018849,-0.26187299999999997,-0.046116,0.040015999999999996,0.025131999999999998,0.31511254019292606,0.12832505115463314,-0.029085062847120726
1742921169.9025795,-1.117398,0.0015249999999999999,-0.21167,-0.032695999999999996,0.022203999999999998,0.039284,0.31511254019292606,0.12832505115463314,-0.029085062847120726
1742921169.9822037,-1.20048,0.011773,-0.198738,-0.002928,-0.010735999999999999,0.020984,0.31511254019292606,0.12832505115463314,-0.029085062847120726
1742921170.0623105,-1.087569,-0.00732,-0.171898,0.005856,-0.012688,0.00122,0.30926629640456005,0.10990938322128033,-0.029961999415375622
1742921170.1423697,-0.903593,-0.0032329999999999998,-0.15921,-0.001952,0.013908,-0.008784,0.30926629640456005,0.10990938322128033,-0.029961999415375622
1742921170.2224767,-0.808738,0.009271999999999999,-0.178974,-0.022935999999999998,0.0017079999999999999,-0.015616,0.30634317451037707,0.13095586085939784,-0.03054662379421222
1742921170.302928,-0.829844,0.016347999999999998,-0.218746,-0.029768,-0.008539999999999999,-0.020739999999999998,0.30634317451037707,0.13095586085939784,-0.03054662379421222
1742921170.3826447,-0.940498,0.017568,-0.25193,-0.025863999999999998,-0.008784,-0.02318,0.30634317451037707,0.13095586085939784,-0.03054662379421222
1742921170.4627104,-1.033645,0.019032,-0.250527,-0.036844,0.020984,-0.017079999999999998,0.31745103770827243,0.1435252850043847,-0.022508038585209004
1742921170.542816,-1.106174,0.032757,-0.234057,-0.046116,0.009271999999999999,-0.0060999999999999995,0.31745103770827243,0.1435252850043847,-0.022508038585209004
1742921170.6228726,-1.230675,-0.003355,-0.223992,-0.028791999999999998,-0.062464,-0.002928,0.3168664133294358,0.14060216311020168,-0.02747734580532008
1742921170.702982,-0.997228,-0.050325,-0.191113,0.011712,0.01586,-0.038796,0.3168664133294358,0.14060216311020168,-0.02747734580532008
1742921170.7830405,-0.860405,-0.02928,-0.193492,0.006588,0.011467999999999999,0.0017079999999999999,0.3168664133294358,0.14060216311020168,-0.02747734580532008
1742921170.863151,-0.8799859999999999,-0.009089,-0.242719,-0.001952,0.0,0.017324,0.3224203449283835,0.1391406021631102,-0.02119263373282666
1742921170.9432318,-0.943365,-0.006771,-0.283101,0.0,0.004148,0.020739999999999998,0.3224203449283835,0.1391406021631102,-0.02119263373282666
1742921171.0233295,-1.0462719999999999,0.003294,-0.264496,0.0034159999999999998,0.018056,0.027084,0.3253434668225665,0.13241742180648933,-0.017100263080970478
1742921171.1033878,-1.111908,-0.00915,-0.232654,0.016104,0.0,0.020739999999999998,0.3253434668225665,0.13241742180648933,-0.017100263080970478
1742921171.1834948,-1.126731,0.00549,-0.17824199999999998,0.028304,-0.034404,-0.00366,0.3253434668225665,0.13241742180648933,-0.017100263080970478
1742921171.263551,-1.006622,0.002257,-0.110959,0.033916,-0.00732,0.010735999999999999,0.31745103770827243,0.12598655363928676,-0.028646594562993278
1742921171.345591,-0.945317,-0.01159,-0.149877,0.025131999999999998,-0.021228,0.01098,0.31745103770827243,0.12598655363928676,-0.028646594562993278
1742921171.4237003,-0.83021,0.020739999999999998,-0.220393,0.027084,-0.004392,0.00244,0.31745103770827243,0.12598655363928676,-0.028646594562993278
1742921171.5048301,-0.895114,0.001037,-0.243756,0.043188,0.010003999999999999,-0.014395999999999999,0.3270973399590763,0.12744811458637825,-0.03726980415083309
1742921171.583878,-0.992043,-0.041968,-0.235643,0.02928,0.02196,-0.013663999999999999,0.3270973399590763,0.12744811458637825,-0.03726980415083309
1742921171.664147,-1.014003,-0.041174999999999996,-0.217099,-0.009271999999999999,0.022448,0.009516,0.31920491084478225,0.12569424144986846,-0.028646594562993278
1742921171.7440474,-1.169309,-0.033367,-0.166042,-0.02196,-0.04392,0.020739999999999998,0.31920491084478225,0.12569424144986846,-0.028646594562993278
1742921171.8241394,-1.108614,-0.066612,-0.14743699999999998,-0.000244,-0.043676,-0.020252,0.31920491084478225,0.12569424144986846,-0.028646594562993278
1742921171.9042115,-1.006378,-0.099064,-0.13511499999999999,0.005856,0.023424,-0.00366,0.3253434668225665,0.12978661210172465,-0.045308389359836304
1742921171.9842772,-0.992897,-0.029036,-0.16897,-0.020739999999999998,-0.01098,0.024644,0.3253434668225665,0.12978661210172465,-0.045308389359836304
1742921172.0643907,-0.948611,0.000976,-0.230458,-0.025863999999999998,0.010003999999999999,0.014152,0.3259280912014031,0.12423268050277697,-0.02382344343759135
1742921172.1444485,-0.910852,-0.00732,-0.288347,-0.018788,0.02928,-0.005856,0.3259280912014031,0.12423268050277697,-0.02382344343759135
1742921172.224555,-1.079517,0.010003999999999999,-0.2562,-0.000488,0.028791999999999998,0.027084,0.3259280912014031,0.12423268050277697,-0.02382344343759135
1742921172.3050454,-1.116239,-0.002806,-0.225273,0.01586,0.015616,0.014395999999999999,0.33235895936860566,0.12657117801812334,-0.014469453376205787
1742921172.3847232,-0.976793,0.012688,-0.151646,0.022935999999999998,0.028548,0.03294,0.33235895936860566,0.12657117801812334,-0.014469453376205787
1742921172.4647875,-0.940559,0.028548,-0.18056,0.020496,-0.033672,0.02928,0.3250511546331482,0.11341712949429991,-0.02104647763811751
1742921172.5448904,-0.833077,0.033123,-0.21838,0.027084,-0.025131999999999998,-0.0034159999999999998,0.3250511546331482,0.11341712949429991,-0.02104647763811751
1742921172.6249666,-0.840031,0.029523999999999998,-0.25668799999999997,0.035136,-0.0034159999999999998,0.003172,0.3250511546331482,0.11341712949429991,-0.02104647763811751
1742921172.705065,-1.001437,0.017506999999999998,-0.300669,0.034892,-0.02318,-0.0046359999999999995,0.3256357790119848,0.1169248757673195,-0.03697749196141479
1742921172.7851286,-1.052616,-0.010248,-0.306525,0.014152,0.02928,-0.030012,0.3256357790119848,0.1169248757673195,-0.03697749196141479
1742921172.8652327,-1.164063,-0.032818,-0.265289,-0.022448,0.022935999999999998,-0.017324,0.3256357790119848,0.1169248757673195,-0.03697749196141479
1742921172.9452941,-1.225795,-0.039223,-0.214537,-0.049776,-0.022692,0.0075639999999999995,0.3232972814966384,0.1151710026308097,-0.03010815551008477
1742921173.025399,-0.8842559999999999,-0.072529,-0.169763,-0.034404,0.062464,-0.011467999999999999,0.3232972814966384,0.1151710026308097,-0.03010815551008477
1742921173.1054568,-0.874374,-0.051667,-0.183549,-0.029036,-0.008296,-0.011956,0.31715872551885416,0.12364805612394036,-0.020315697164571763
1742921173.1855786,-0.897676,-0.023485,-0.20191,-0.03172,-0.026595999999999998,-0.011224,0.31715872551885416,0.12364805612394036,-0.020315697164571763
1742921173.2656343,-0.858453,-0.0068319999999999995,-0.261934,-0.02928,0.011467999999999999,-0.007808,0.31715872551885416,0.12364805612394036,-0.020315697164571763
1742921173.3461463,-0.882243,0.02318,-0.296033,-0.025131999999999998,0.021471999999999998,0.0017079999999999999,0.3189125986553639,0.12803273896521486,-0.0004384682841274481
1742921173.425773,-1.065609,0.026168999999999998,-0.291641,-0.010735999999999999,-0.003904,0.015616,0.3189125986553639,0.12803273896521486,-0.0004384682841274481
1742921173.5058892,-1.053165,0.00366,-0.286761,0.016836,0.008052,0.016104,0.32212803273896523,0.12218649517684887,-0.01826951183864367
1742921173.585949,-1.091778,0.008052,-0.23247099999999998,0.03294,-0.019032,0.013663999999999999,0.32212803273896523,0.12218649517684887,-0.01826951183864367
1742921173.6660883,-1.0301069999999999,0.012444,-0.17360599999999998,0.038551999999999996,-0.014152,0.012199999999999999,0.32212803273896523,0.12218649517684887,-0.01826951183864367
1742921173.7461703,-0.837652,-0.011467999999999999,-0.250405,0.022448,0.001952,-0.011956,0.3311897106109325,0.1172171879567378,-0.03332358959368606
1742921173.8262646,-0.890966,-0.031293,-0.285114,0.027816,-0.006344,-0.049044,0.3311897106109325,0.1172171879567378,-0.03332358959368606
1742921173.9063218,-1.03029,-0.018543999999999998,-0.275903,0.020739999999999998,0.006344,-0.037332,0.31657410114001755,0.1382636655948553,-0.03756211634025139
1742921173.9893768,-1.065914,-0.031842,-0.278282,-0.015616,0.052704,-0.004392,0.31657410114001755,0.1382636655948553,-0.03756211634025139
1742921174.0664897,-1.116544,-0.09143899999999999,-0.22356499999999999,-0.039528,0.024399999999999998,0.000244,0.31657410114001755,0.1382636655948553,-0.03756211634025139
1742921174.1495197,-1.116178,-0.074054,-0.193126,-0.046116,-0.038064,-0.025131999999999998,0.3121894182987431,0.143817597193803,-0.03259280912014031
1742921174.2266586,-0.990152,-0.072041,-0.173484,-0.034648,0.005856,0.003172,0.3121894182987431,0.143817597193803,-0.03259280912014031
1742921174.3128982,-0.889197,-0.008479,-0.207095,-0.031232,-0.0068319999999999995,0.0053679999999999995,0.3197895352236188,0.13475591932183573,-0.01900029231218942
1742921174.3868484,-0.79422,0.017324,-0.229909,-0.021716,0.010492,-0.000732,0.3197895352236188,0.13475591932183573,-0.01900029231218942
1742921174.466911,-0.842349,0.006771,-0.250832,-0.00488,-0.0026839999999999998,0.002196,0.3197895352236188,0.13475591932183573,-0.01900029231218942
1742921174.5469918,-0.9076799999999999,-0.001281,-0.243329,0.016592,0.0068319999999999995,0.012444,0.31745103770827243,0.13446360713241742,-0.036831335866705645
1742921174.6270692,-1.073661,-0.029096999999999998,-0.259311,0.030012,-0.025863999999999998,0.028548,0.31745103770827243,0.13446360713241742,-0.036831335866705645
1742921174.707182,-1.1761409999999999,-0.043737,-0.257725,0.031232,-0.04636,0.045384,0.31745103770827243,0.13446360713241742,-0.036831335866705645
1742921174.7872508,-1.132099,-0.02501,-0.209108,0.023424,-0.028548,0.054655999999999996,0.3332358959368606,0.1163402513884829,-0.04355451622332651
1742921174.8706493,-0.968924,-0.009211,-0.177083,0.001952,0.025376,0.043432,0.3332358959368606,0.1163402513884829,-0.04355451622332651
1742921174.9559677,-0.965508,0.009882,-0.221003,-0.0183,-0.023667999999999998,0.016836,0.3332358959368606,0.11078631978953522,-0.04355451622332651
1742921175.031611,-0.795074,0.010248,-0.276452,0.000244,0.021716,-0.020984,0.3332358959368606,0.11078631978953522,-0.04355451622332651
1742921175.1115425,-0.855464,-0.000915,-0.327204,0.022203999999999998,0.014884,-0.036844,0.3332358959368606,0.11078631978953522,-0.04355451622332651
1742921175.191145,-1.018578,-0.013359,-0.287554,-0.028059999999999998,0.023667999999999998,-0.0046359999999999995,0.3212510961707103,0.12657117801812334,-0.030692779888921367
1742921175.2720544,-1.268678,-0.021228,-0.238266,-0.035868,-0.03782,-0.020739999999999998,0.3212510961707103,0.12657117801812334,-0.030692779888921367
1742921175.3532844,-1.002779,-0.042761,-0.210389,-0.019275999999999998,0.0060999999999999995,-0.038551999999999996,0.32212803273896523,0.13855597778427362,-0.020315697164571763
1742921175.432663,-0.903837,-0.075396,-0.170739,-0.017079999999999998,0.0366,-0.016836,0.32212803273896523,0.13855597778427362,-0.020315697164571763
1742921175.5183365,-0.896151,-0.035258,-0.182695,-0.020984,-0.005612,0.011467999999999999,0.32212803273896523,0.13855597778427362,-0.020315697164571763
1742921175.5925019,-0.7853749999999999,-0.016897,-0.21953899999999998,-0.016592,0.027084,0.00488,0.32008184741303713,0.13329435837474424,-0.028792750657702426
1742921175.6726663,-0.844362,-0.016774999999999998,-0.262239,-0.021716,0.010003999999999999,0.0068319999999999995,0.32008184741303713,0.13329435837474424,-0.028792750657702426
1742921175.7527196,-0.980819,-0.007808,-0.292922,-0.023424,-0.005856,0.014395999999999999,0.32066647179187374,0.12803273896521486,-0.020023384975153463
1742921175.8328884,-1.065243,-0.016836,-0.280966,-0.010003999999999999,0.002196,0.019764,0.32066647179187374,0.12803273896521486,-0.020023384975153463
1742921175.9205804,-1.143689,-0.021106,-0.239608,-0.0017079999999999999,-0.024644,0.010492,0.32066647179187374,0.12803273896521486,-0.020023384975153463
1742921175.992356,-1.147776,0.013786,-0.192089,0.005124,-0.049776,0.027327999999999998,0.3259280912014031,0.12861736334405144,-0.03390821397252265
1742921176.0732644,-1.052555,0.009211,-0.174765,0.009516,-0.014884,0.025131999999999998,0.3259280912014031,0.12861736334405144,-0.03390821397252265
1742921176.1537395,-0.9289689999999999,-0.008052,-0.224663,0.015372,-0.007808,-0.0053679999999999995,0.3259280912014031,0.12861736334405144,-0.033031277404267756
1742921176.2334878,-0.775981,-0.0060999999999999995,-0.258091,0.029768,0.040992,-0.019032,0.3300204618532593,0.13095586085939784,-0.033031277404267756
1742921176.3128755,-0.853451,-0.00732,-0.303048,0.039528,0.01464,-0.019764,0.3300204618532593,0.13095586085939784,-0.033031277404267756
1742921176.3953414,-0.966301,-0.02257,-0.29402,0.033428,0.023667999999999998,-0.024399999999999998,0.31862028646594565,0.14060216311020168,-0.03186202864659456
1742921176.4730904,-1.113799,-0.029402,-0.295057,0.006588,0.010492,-0.01952,0.31862028646594565,0.14060216311020168,-0.03186202864659456
1742921176.5532389,-1.139419,-0.054534,-0.283406,-0.017811999999999998,-0.01098,0.000976,0.31862028646594565,0.14060216311020168,-0.03186202864659456
1742921176.633339,-1.092754,-0.04636,-0.211304,-0.027816,-0.025863999999999998,-0.010248,0.3177433498976907,0.14089447529962,-0.02499269219526454
1742921176.7159114,-0.872422,-0.024278,-0.185867,-0.011224,0.010492,0.01464,0.3177433498976907,0.14089447529962,-0.02499269219526454
1742921176.7942934,-0.7990389999999999,0.00244,-0.243329,-0.012931999999999999,0.011712,0.001952,0.3183279742765273,0.13680210464776382,-0.010815551008477054
1742921176.8737235,-0.870287,-0.012505,-0.287615,-0.00976,0.000488,-0.00244,0.3183279742765273,0.13680210464776382,-0.010815551008477054
1742921176.9537513,-0.992104,-0.018422,-0.31232,0.004392,0.000244,-0.005612,0.3183279742765273,0.13680210464776382,-0.010815551008477054
1742921177.0346613,-1.052006,-0.026352,-0.31585799999999997,0.02318,0.018543999999999998,0.0,0.3162817889505992,0.13066354866997953,-0.014469453376205787
1742921177.122079,-1.154608,-0.037881,-0.259677,0.037087999999999996,-0.008539999999999999,0.015372,0.3162817889505992,0.13066354866997953,-0.014469453376205787
1742921177.1934924,-1.150399,-0.000183,-0.225578,0.047092,-0.041479999999999996,0.018543999999999998,0.31540485238234434,0.13007892429114293,-0.018123355743934522
1742921177.274365,-0.8894409999999999,-0.007625,-0.205021,0.043676,0.040748,0.015127999999999999,0.31540485238234434,0.13007892429114293,-0.018123355743934522
1742921177.3566072,-0.968558,-0.008905999999999999,-0.233203,0.0366,-0.043676,0.008539999999999999,0.31540485238234434,0.13007892429114293,-0.018123355743934522
1742921177.4422376,-0.836005,-0.010919,-0.241377,0.046116,0.010003999999999999,0.000488,0.32066647179187374,0.12949429991230635,-0.031131248173048815
1742921177.5157893,-0.845338,-0.029158,-0.256078,0.050263999999999996,0.013908,-0.010248,0.32066647179187374,0.12949429991230635,-0.031131248173048815
1742921177.5959413,-0.9429379999999999,-0.040809,-0.28102699999999997,0.038551999999999996,0.012931999999999999,-0.022935999999999998,0.3168664133294358,0.1382636655948553,-0.02747734580532008
1742921177.676219,-1.065609,-0.062464,-0.28041699999999997,0.017811999999999998,0.01586,-0.006344,0.3168664133294358,0.1382636655948553,-0.02747734580532008
1742921177.7569172,-1.16998,-0.031171,-0.273646,0.008784,-0.00366,0.037576,0.3168664133294358,0.1382636655948553,-0.02747734580532008
1742921177.8427887,-1.15107,-0.024034,-0.28243,0.011467999999999999,-0.007076,0.022448,0.30722011107863195,0.13329435837474424,-0.017538731365097926
1742921177.916386,-0.937875,-0.0549,-0.228323,0.010248,0.063928,0.00366,0.30722011107863195,0.13329435837474424,-0.017538731365097926
1742921177.9965556,-0.943731,-0.056059,-0.22136899999999998,0.0183,0.023667999999999998,0.008052,0.30722011107863195,0.13329435837474424,-0.017538731365097926
1742921178.0766103,-0.826306,-0.031781,-0.23802199999999998,0.032452,0.0305,0.019032,0.30634317451037707,0.12160187079801228,-0.013300204618532593
1742921178.1575317,-0.816851,-0.026535,-0.344833,0.019275999999999998,-0.0075639999999999995,0.011467999999999999,0.30634317451037707,0.12160187079801228,-0.013300204618532593
1742921178.241789,-0.9761219999999999,-0.029036,-0.355386,0.018788,-0.0068319999999999995,0.02318,0.3060508623209588,0.12715580239695995,-0.03010815551008477
1742921178.3179905,-1.068415,-0.020374,-0.318481,0.018788,-0.002196,0.026108,0.3060508623209588,0.12715580239695995,-0.03010815551008477
1742921178.3970778,-1.1831559999999999,-0.043005,-0.285846,0.018056,-0.023667999999999998,0.02562,0.3060508623209588,0.12715580239695995,-0.03010815551008477
1742921178.4773114,-1.002474,0.029463,-0.271877,0.018543999999999998,-0.0053679999999999995,0.029768,0.31657410114001755,0.1140017538731365,-0.03610055539315989
1742921178.5654898,-0.964166,0.038369,-0.224724,0.014884,0.0034159999999999998,0.04514,0.31657410114001755,0.1140017538731365,-0.03610055539315989
1742921178.6374958,-0.954894,-0.010431,-0.20679,0.027327999999999998,-0.046848,0.020007999999999998,0.3121894182987431,0.09733995907629348,-0.04253142356036247
1742921178.717676,-0.79239,0.002745,-0.231739,0.030987999999999998,0.016347999999999998,0.011224,0.3121894182987431,0.09733995907629348,-0.04253142356036247
1742921178.7978501,-0.899567,0.013542,-0.310185,0.026352,0.000488,0.0060999999999999995,0.3121894182987431,0.09733995907629348,-0.04253142356036247
1742921178.8786707,-0.967033,0.010248,-0.335195,0.027084,0.01952,-0.0026839999999999998,0.3270973399590763,0.10552470038000585,-0.04355451622332651
1742921178.966131,-1.1302079999999999,0.01159,-0.338184,0.017324,-0.005124,-0.017568,0.3270973399590763,0.10552470038000585,-0.04355451622332651
1742921179.0386653,-1.15534,-0.023912,-0.27114499999999997,0.011467999999999999,-0.017811999999999998,-0.011224,0.30926629640456005,0.10669394913767904,-0.04399298450745396
1742921179.118375,-1.022238,-0.043981,-0.253577,0.011956,-0.016592,-0.000488,0.30926629640456005,0.10669394913767904,-0.04399298450745396
1742921179.1991782,-0.884927,-0.118889,-0.23460599999999998,0.008052,0.028304,-0.011224,0.30926629640456005,0.10669394913767904,-0.04399298450745396
1742921179.2793438,-0.946842,-0.08649799999999999,-0.249612,-0.009271999999999999,-0.020007999999999998,0.002196,0.3080970476468869,0.10640163694826074,-0.041069862613270974
1742921179.3597395,-0.84424,-0.039894,-0.292495,-0.031232,0.018056,0.010735999999999999,0.3080970476468869,0.10640163694826074,-0.041069862613270974
1742921179.4388134,-0.877302,-0.027755,-0.31659,-0.040748,0.001464,-0.0060999999999999995,0.3060508623209588,0.09792458345513008,-0.028792750657702426
1742921179.5254526,-0.927383,0.029951,-0.337635,-0.02562,0.010003999999999999,0.03538,0.3060508623209588,0.09792458345513008,-0.028792750657702426
1742921179.5997636,-0.989237,0.033854999999999996,-0.336171,-0.02562,0.010003999999999999,-0.0060999999999999995,0.3060508623209588,0.09792458345513008,-0.028792750657702426
1742921179.6799262,-1.159061,-0.01342,-0.238693,0.010248,-0.046848,-0.009028,0.30575855013154046,0.09617071031862029,-0.04370067231803566
1742921179.7599754,-0.94489,0.030317,-0.201605,0.022692,0.025376,0.0017079999999999999,0.30575855013154046,0.09617071031862029,-0.04370067231803566
1742921179.8401468,-1.029253,-0.0068319999999999995,-0.213256,0.033916,-0.034892,-0.005124,0.30575855013154046,0.09617071031862029,-0.04370067231803566
1742921179.9260535,-0.895663,-0.023667999999999998,-0.25193,0.030012,0.003172,-0.02318,0.2958199356913183,0.10230926629640456,-0.052470038000584626
1742921180.0003598,-0.796538,-0.014518,-0.295911,0.015372,0.046116,-0.018543999999999998,0.2958199356913183,0.10230926629640456,-0.052470038000584626
1742921180.0802944,-0.988688,-0.002562,-0.32878999999999997,0.00366,-0.01464,-0.012199999999999999,0.29231218941829873,0.10844782227418884,-0.04837766734872844
1742921180.1599138,-0.993873,-0.030927,-0.31659,-0.0034159999999999998,0.037576,-0.01342,0.29231218941829873,0.10844782227418884,-0.04837766734872844
1742921180.2408047,-0.995764,-0.04636,-0.312503,-0.013908,0.048799999999999996,0.005612,0.29231218941829873,0.10844782227418884,-0.04837766734872844
1742921180.3282962,-1.081164,-0.066551,-0.278282,-0.021471999999999998,-0.003172,0.034159999999999996,0.28734288219818765,0.10552470038000585,-0.0343466822566501
1742921180.4012303,-1.0291919999999999,-0.059475,-0.244061,-0.026595999999999998,-0.012444,0.023667999999999998,0.28734288219818765,0.10552470038000585,-0.0343466822566501
1742921180.4804497,-0.933483,-0.061426999999999995,-0.23893699999999998,-0.022203999999999998,-0.016104,-0.025131999999999998,0.2829581993569132,0.12130955860859398,-0.03376205787781351
1742921180.560639,-0.878827,-0.021167,-0.249246,-0.007808,-0.005856,-0.017324,0.2829581993569132,0.12130955860859398,-0.03376205787781351
1742921180.6406424,-0.87779,0.00732,-0.266326,0.002928,0.0075639999999999995,0.000976,0.2829581993569132,0.12130955860859398,-0.03376205787781351
1742921180.7222385,-0.9280539999999999,-0.021655,-0.323666,0.012688,-0.010492,0.0026839999999999998,0.2841274481145864,0.11049400760011692,-0.043262204033908215
1742921180.8013902,-0.973621,-0.030012,-0.376126,0.02318,-0.000244,0.005124,0.2841274481145864,0.11049400760011692,-0.043262204033908215
1742921180.881092,-1.090497,-0.02745,-0.399245,0.033428,0.000244,0.019032,0.29143525285004385,0.11049400760011692,-0.056562408652440804
1742921180.9612095,-1.111847,-0.016531,-0.349713,0.045384,0.005124,0.010492,0.29143525285004385,0.11049400760011692,-0.056562408652440804
1742921181.0420601,-1.083238,-0.004026,-0.283711,0.044896,0.01586,0.028791999999999998,0.29143525285004385,0.11049400760011692,-0.056562408652440804
1742921181.1227705,-0.868762,-0.000915,-0.25132,0.033184,-0.00122,0.007808,0.3022508038585209,0.0926629640456007,-0.0594855305466238
1742921181.2015257,-0.76189,0.006893,-0.263276,0.020007999999999998,0.01464,0.003904,0.3022508038585209,0.0926629640456007,-0.0594855305466238
1742921181.2816937,-0.8011739999999999,-0.012688,-0.277611,0.005612,0.00488,0.025131999999999998,0.3022508038585209,0.0926629640456007,-0.0594855305466238
1742921181.3628306,-1.005036,-0.0017079999999999999,-0.337086,-0.014152,-0.034892,0.020496,0.31335866705641624,0.08740134463607133,-0.050131540485238234
1742921181.4471767,-1.0404769999999999,0.026718,-0.38613,-0.024644,-0.000976,-0.002928,0.31335866705641624,0.08740134463607133,-0.050131540485238234
1742921181.522705,-1.093364,-0.022753,-0.365634,-0.022692,-0.022203999999999998,-0.000488,0.31043554516223326,0.0935399006138556,-0.06240865244080678
1742921181.6028662,-1.097634,-0.029463,-0.299754,-0.015616,-0.048799999999999996,-0.012688,0.31043554516223326,0.0935399006138556,-0.06240865244080678
1742921181.6821983,-0.9134749999999999,-0.098332,-0.234972,-0.017568,0.025376,-0.0305,0.31043554516223326,0.0935399006138556,-0.06240865244080678
1742921181.7630992,-0.963434,-0.068747,-0.238083,-0.035623999999999996,-0.030987999999999998,-0.021716,0.3040046769950307,0.10201695410698626,-0.06679333528208126
1742921181.8474858,-0.909754,-0.018666,-0.27053499999999997,-0.035868,0.000488,-0.0053679999999999995,0.3040046769950307,0.10201695410698626,-0.06679333528208126
1742921181.9225516,-0.830454,-0.013603,-0.32086,-0.024399999999999998,0.031964,-0.022203999999999998,0.29611224788073665,0.11546331482022801,-0.04516223326512715
1742921182.0034382,-0.9140849999999999,-0.034159999999999996,-0.343125,-0.024399999999999998,0.014884,-0.01464,0.29611224788073665,0.11546331482022801,-0.04516223326512715
1742921182.0836124,-1.054446,-0.049044,-0.325984,-0.028059999999999998,0.000732,0.001952,0.29611224788073665,0.11546331482022801,-0.04516223326512715
1742921182.163777,-1.0931199999999999,-0.017324,-0.299144,-0.019764,-0.012444,-0.001952,0.3004969307220111,0.11224788073662671,-0.04136217480268927
1742921182.2492838,-1.16144,-0.038735,-0.240096,-0.000976,-0.044407999999999996,-0.003172,0.3004969307220111,0.11224788073662671,-0.04136217480268927
1742921182.3248441,-0.940376,-0.010187,-0.210633,0.019032,0.00976,0.005124,0.29961999415375623,0.1151710026308097,-0.03668517977199649
1742921182.4037936,-0.905118,-0.021228,-0.252418,0.027816,-0.03172,0.0068319999999999995,0.29961999415375623,0.1151710026308097,-0.03668517977199649
1742921182.4839506,-0.825025,-0.027511,-0.294081,0.026595999999999998,-0.0046359999999999995,-0.012199999999999999,0.29961999415375623,0.1151710026308097,-0.03668517977199649
1742921182.5706246,-0.883829,-0.03294,-0.33092499999999997,0.0034159999999999998,0.016592,-0.010248,0.3034200526161941,0.12043262204033908,-0.04633148202280035
1742921182.6441877,-1.042368,-0.099369,-0.326289,-0.01464,0.045628,-0.000976,0.3034200526161941,0.12043262204033908,-0.04633148202280035
1742921182.7243323,-1.145214,-0.102419,-0.306159,-0.023667999999999998,-0.010248,0.001952,0.29611224788073665,0.12423268050277697,-0.041069862613270974
1742921182.8051813,-1.085678,-0.051545,-0.266204,-0.03172,-0.025863999999999998,-0.0026839999999999998,0.29611224788073665,0.12423268050277697,-0.041069862613270974
1742921182.885116,-0.865651,-0.071187,-0.211609,-0.038551999999999996,0.060024,0.014884,0.29611224788073665,0.12423268050277697,-0.041069862613270974
1742921182.9713137,-0.914329,-0.05551,-0.221552,-0.035136,-0.016836,0.0068319999999999995,0.3040046769950307,0.11020169541069863,-0.02075416544869921
1742921183.04488,-0.8319179999999999,-0.039223,-0.254309,-0.018056,-0.00122,0.003904,0.3040046769950307,0.11020169541069863,-0.02075416544869921
1742921183.1257737,-0.808433,-0.01952,-0.30597599999999997,-0.008052,-0.01342,-0.007808,0.3040046769950307,0.11020169541069863,-0.02075416544869921
1742921183.2050822,-0.936411,-0.038003,-0.370819,-0.00366,-0.03538,0.0,0.3048816135632856,0.1180941245249927,-0.022508038585209004
1742921183.2852778,-1.065548,-0.021838,-0.38326299999999996,-0.005124,-0.00976,0.008296,0.3048816135632856,0.1180941245249927,-0.022508038585209004
1742921183.3665295,-1.107882,-0.039710999999999996,-0.358741,0.0046359999999999995,0.015372,0.001464,0.3075124232680503,0.11195556854720842,-0.02382344343759135
1742921183.445843,-1.186267,-0.048129,-0.280478,0.013663999999999999,-0.016104,0.014152,0.3075124232680503,0.11195556854720842,-0.02382344343759135
1742921183.5263803,-0.891088,-0.021167,-0.20862,0.020252,0.047092,0.008539999999999999,0.3075124232680503,0.11195556854720842,-0.02382344343759135
1742921183.6061165,-0.902556,-0.044957,-0.201544,0.028304,-0.024399999999999998,-0.00244,0.2964045600701549,0.10464776381175095,-0.03273896521484946
1742921183.6923795,-0.844362,-0.030805,-0.236375,0.032208,-0.039528,-0.013176,0.2964045600701549,0.10464776381175095,-0.03273896521484946
1742921183.76667,-0.858575,-0.025193,-0.281515,0.034648,-0.0034159999999999998,-0.00732,0.3045893013738673,0.11429406606255481,-0.04881613563285589
1742921183.846825,-0.968253,-0.050508,-0.317322,0.031232,-0.008296,-0.006588,0.3045893013738673,0.11429406606255481,-0.04881613563285589
1742921183.9274747,-1.001071,-0.093696,-0.304573,0.007076,0.036356,-0.01342,0.3045893013738673,0.11429406606255481,-0.04881613563285589
1742921184.0070457,-1.069513,-0.095099,-0.290421,-0.033428,0.012199999999999999,0.0017079999999999999,0.30838935983630517,0.11546331482022801,-0.03668517977199649
1742921184.0864313,-1.157536,-0.088633,-0.27083999999999997,-0.055632,0.034892,-0.016592,0.30838935983630517,0.11546331482022801,-0.03668517977199649
1742921184.1672862,-1.067256,-0.080703,-0.224419,-0.060756,-0.04758,-0.018788,0.2999123063431745,0.11429406606255481,-0.030985092078339667
1742921184.2474027,-0.944341,-0.011956,-0.257359,-0.062708,-0.010492,0.027572,0.2999123063431745,0.11429406606255481,-0.030985092078339667
1742921184.3359752,-0.776774,0.010309,-0.307074,-0.04514,0.034648,0.013176,0.2999123063431745,0.11429406606255481,-0.030985092078339667
1742921184.4079385,-0.8565619999999999,-0.005795,-0.343125,-0.020739999999999998,0.004392,0.00488,0.3045893013738673,0.11078631978953522,-0.025869628763519437
1742921184.4870238,-0.967338,0.0051849999999999995,-0.329888,0.00122,0.010248,0.0183,0.3045893013738673,0.11078631978953522,-0.025869628763519437
1742921184.5670972,-1.057252,0.010431,-0.318969,0.026108,0.01342,0.039284,0.3045893013738673,0.11078631978953522,-0.025869628763519437
1742921184.6553583,-1.127646,-0.016774999999999998,-0.298595,0.05734,-0.010492,0.024156,0.31248173048816136,0.09587839812920199,-0.022654194679918152
1742921184.728079,-1.032669,0.00042699999999999997,-0.222711,0.060268,-0.000732,0.02684,0.31248173048816136,0.09587839812920199,-0.022654194679918152
1742921184.8074825,-0.985028,0.02745,-0.200202,0.043432,-0.009028,0.021716,0.31277404267757963,0.10055539315989477,-0.02776965799473838
1742921184.888575,-0.878034,0.011101999999999999,-0.240889,0.040992,-0.028791999999999998,0.010248,0.31277404267757963,0.10055539315989477,-0.02776965799473838
1742921184.9682484,-0.762927,0.0060999999999999995,-0.291153,0.051727999999999996,0.010003999999999999,-0.004148,0.31277404267757963,0.10055539315989477,-0.02776965799473838
1742921185.0479486,-0.951295,-0.009394,-0.34465,0.052216,-0.023424,-0.011712,0.3095586085939784,0.10318620286465946,-0.05217772581116632
1742921185.128019,-1.011136,-0.014152,-0.329339,0.018788,0.020984,-0.001952,0.3095586085939784,0.10318620286465946,-0.05217772581116632
1742921185.20825,-1.054507,-0.003172,-0.300608,-0.022935999999999998,0.024644,0.016592,0.31306635486699796,0.09617071031862029,-0.04793919906460099
1742921185.2921238,-1.259833,-0.049654,-0.235826,-0.036112,-0.07002799999999999,0.010492,0.31306635486699796,0.09617071031862029,-0.04793919906460099
1742921185.3730252,-1.050115,-0.099003,-0.199897,-0.030987999999999998,-0.018056,-0.030012,0.31306635486699796,0.09617071031862029,-0.04793919906460099
1742921185.4508262,-0.940803,-0.107238,-0.191601,-0.029523999999999998,0.029523999999999998,-0.023424,0.31335866705641624,0.10377082724349605,-0.04896229172756504
1742921185.5304618,-0.784704,-0.016592,-0.253943,-0.023424,0.032208,0.00732,0.31335866705641624,0.10377082724349605,-0.04896229172756504
1742921185.6105735,-0.944402,0.001037,-0.328546,-0.006588,-0.009516,0.021716,0.31657410114001755,0.10143232972814967,-0.03273896521484946
1742921185.6906533,-0.912438,0.003721,-0.360998,0.022448,0.022203999999999998,0.006588,0.31657410114001755,0.10143232972814967,-0.03273896521484946
1742921185.7707484,-1.015284,-0.034709,-0.34099,0.037332,-0.008539999999999999,-0.000976,0.31657410114001755,0.10143232972814967,-0.03273896521484946
1742921185.8508027,-1.079273,-0.044835,-0.276879,0.027084,-0.027816,-0.006344,0.30634317451037707,0.09558608593978368,-0.05378544285296697
1742921185.9309134,-1.163575,-0.047702,-0.201849,0.010003999999999999,-0.062708,0.0034159999999999998,0.30634317451037707,0.09558608593978368,-0.05378544285296697
1742921186.010971,-0.920978,-0.05063,-0.165859,-0.00732,0.030012,0.00732,0.30838935983630517,0.09967845659163987,-0.052908506284712074
1742921186.091072,-0.9420229999999999,-0.04514,-0.18842899999999999,-0.016104,-0.038796,0.011712,0.30838935983630517,0.09967845659163987,-0.052908506284712074
1742921186.1711266,-0.901641,-0.062647,-0.254675,-0.009516,-0.031232,-0.010492,0.30838935983630517,0.09967845659163987,-0.052908506284712074
1742921186.2512493,-0.882975,-0.05734,-0.288957,0.0068319999999999995,0.010003999999999999,-0.033184,0.3054662379421222,0.11254019292604502,-0.06942414498684595
1742921186.331788,-0.970205,-0.047335999999999996,-0.304512,-0.005612,0.012688,-0.044407999999999996,0.3054662379421222,0.11254019292604502,-0.06942414498684595
1742921186.4144492,-1.019615,-0.020801,-0.297131,-0.04758,0.059536,-0.009271999999999999,0.31569716457176267,0.1151710026308097,-0.04092370651856182
1742921186.4914668,-1.135027,-0.008235,-0.29395899999999997,-0.058316,0.02684,0.040504,0.31569716457176267,0.1151710026308097,-0.04092370651856182
1742921186.5746205,-1.1746159999999999,-0.042883,-0.257359,-0.028059999999999998,-0.041479999999999996,-0.006588,0.31569716457176267,0.1151710026308097,-0.04092370651856182
1742921186.651631,-0.9332389999999999,-0.110715,-0.219905,0.0034159999999999998,0.020984,-0.03538,0.3016661794796843,0.13270973399590763,-0.04793919906460099
1742921186.7347765,-0.874008,-0.07942199999999999,-0.221003,0.0068319999999999995,0.012931999999999999,-0.018543999999999998,0.3016661794796843,0.13270973399590763,-0.04793919906460099
1742921186.8118412,-0.843752,-0.039406,-0.240828,0.0046359999999999995,-0.008052,0.021471999999999998,0.3016661794796843,0.13270973399590763,-0.04793919906460099
1742921186.8950038,-0.8418,-0.039284,-0.285358,0.006588,0.005856,0.013176,0.30722011107863195,0.12364805612394036,-0.04866997953814674
1742921186.9719853,-0.9350689999999999,-0.038064,-0.33153499999999997,0.005124,-0.005612,0.011224,0.30722011107863195,0.12364805612394036,-0.04866997953814674
1742921187.055118,-1.027423,-0.021167,-0.339221,0.036112,0.027572,0.032208,0.31540485238234434,0.12014030985092078,-0.04150833089739842
1742921187.132151,-1.15656,-0.02928,-0.300303,0.039528,-0.020984,0.036356,0.31540485238234434,0.12014030985092078,-0.04150833089739842
1742921187.2153168,-1.0864099999999999,-0.015555,-0.247721,0.032695999999999996,-0.001952,0.019764,0.31540485238234434,0.12014030985092078,-0.04150833089739842
1742921187.2928405,-0.887489,0.022203999999999998,-0.229116,0.025376,0.062708,0.016836,0.31803566208710904,0.10786319789535223,-0.04837766734872844
1742921187.3723898,-0.891454,0.010614,-0.24942899999999998,0.021471999999999998,0.008539999999999999,0.022448,0.31803566208710904,0.10786319789535223,-0.04837766734872844
1742921187.452597,-0.794647,-0.006893,-0.277245,0.027572,0.018788,0.008296,0.31482022800350773,0.10610932475884244,-0.04223911137094417
1742921187.532651,-0.863821,-0.014457,-0.31049,0.025863999999999998,0.0046359999999999995,-0.010735999999999999,0.31482022800350773,0.10610932475884244,-0.04223911137094417
1742921187.6127627,-0.98088,-0.025803,-0.345321,0.006344,-0.000244,-0.014884,0.31482022800350773,0.10610932475884244,-0.04223911137094417
1742921187.6928182,-1.0477969999999999,-0.045323,-0.345016,-0.030255999999999998,0.024888,-0.023667999999999998,0.31072785735165154,0.12189418298743057,-0.047500730780473545
1742921187.7729275,-1.201578,-0.063318,-0.315736,-0.050752,-0.041724,-0.0053679999999999995,0.31072785735165154,0.12189418298743057,-0.047500730780473545
1742921187.85298,-0.995764,-0.056242,-0.29395899999999997,-0.037576,-0.009271999999999999,0.017811999999999998,0.31862028646594565,0.11370944168371822,-0.03478515054077755
1742921187.9331007,-0.99064,-0.063379,-0.26187299999999997,-0.016104,0.0046359999999999995,0.002928,0.31862028646594565,0.11370944168371822,-0.03478515054077755
1742921188.0131483,-0.841556,-0.022753,-0.258274,0.0017079999999999999,0.017324,0.003172,0.31862028646594565,0.11370944168371822,-0.03478515054077755
1742921188.0932624,-0.746213,-0.027877,-0.301401,0.019032,0.010735999999999999,-0.002928,0.31657410114001755,0.12130955860859398,-0.04180064308681672
1742921188.173316,-0.884439,-0.017811999999999998,-0.35465399999999997,0.024644,-0.0366,-0.00488,0.31657410114001755,0.12130955860859398,-0.04180064308681672
1742921188.2534282,-1.04676,-0.026595999999999998,-0.379847,0.009516,0.007076,0.011712,0.31657410114001755,0.12130955860859398,-0.04180064308681672
1742921188.333496,-1.029924,-0.021838,-0.409005,0.000488,0.077348,0.02318,0.3162817889505992,0.12423268050277697,-0.020315697164571763
1742921188.4136095,-1.044686,-0.029463,-0.38978999999999997,0.005124,0.02928,0.020496,0.3162817889505992,0.12423268050277697,-0.020315697164571763
1742921188.4936678,-1.106662,-0.022935999999999998,-0.306159,0.003172,-0.060511999999999996,0.033428,0.33440514469453375,0.09763227126571178,-0.021631102016954108
1742921188.5737495,-0.901763,0.002928,-0.252601,0.019275999999999998,-0.022448,0.024644,0.33440514469453375,0.09763227126571178,-0.021631102016954108
1742921188.6538057,-0.813801,0.0068319999999999995,-0.280173,0.032208,-0.033672,0.000976,0.33440514469453375,0.09763227126571178,-0.021631102016954108
1742921188.733927,-0.846985,0.009637999999999999,-0.329522,0.026595999999999998,-0.013663999999999999,-0.017811999999999998,0.3393744519146448,0.10230926629640456,-0.03244665302543116
1742921188.8139656,-0.973926,-0.012078,-0.362279,0.013176,-0.01342,-0.035868,0.3393744519146448,0.10230926629640456,-0.03244665302543116
1742921188.8940713,-0.997655,-0.027389,-0.342271,-0.015127999999999999,0.043188,-0.009028,0.34317451037708274,0.10201695410698626,-0.041216018707980126
1742921188.9741275,-1.105625,-0.007625,-0.335378,-0.037576,-0.037087999999999996,0.011712,0.34317451037708274,0.10201695410698626,-0.041216018707980126
1742921189.0542507,-1.212375,0.006161,-0.267485,-0.019275999999999998,-0.107848,0.013176,0.34317451037708274,0.10201695410698626,-0.041216018707980126
1742921189.1342967,-0.86071,-0.072468,-0.22021,0.009516,0.047335999999999996,0.003172,0.33732826658871673,0.10084770534931306,-0.050131540485238234
1742921189.214407,-0.936411,-0.08113,-0.213256,0.0026839999999999998,-0.0017079999999999999,0.0046359999999999995,0.33732826658871673,0.10084770534931306,-0.050131540485238234
1742921189.2951267,-0.942755,-0.044286,-0.22204,-0.014884,-0.032695999999999996,0.0,0.3428821981876644,0.10815551008477053,-0.05320081847413037
1742921189.3758335,-0.7838499999999999,-0.031964,-0.266875,-0.028548,0.023424,-0.010248,0.3428821981876644,0.10815551008477053,-0.05320081847413037
1742921189.4546347,-0.880962,-0.022509,-0.333426,-0.035868,-0.010003999999999999,0.004392,0.3428821981876644,0.10815551008477053,-0.05320081847413037
1742921189.535185,-1.027301,0.0048189999999999995,-0.341356,-0.026352,-0.011712,0.016836,0.3490207541654487,0.09880152002338498,-0.04574685764396375
1742921189.6148207,-1.1102,-0.007991,-0.300852,-0.006588,-0.005856,0.02684,0.3490207541654487,0.09880152002338498,-0.04574685764396375
1742921189.6948688,-1.2379339999999999,0.001952,-0.250466,-0.002196,-0.054168,0.013663999999999999,0.3490207541654487,0.09880152002338498,-0.04574685764396375
1742921189.774957,-0.975451,0.065575,-0.180926,-0.002928,0.043432,-0.000488,0.3496053785442853,0.08301666179479684,-0.056708564747149956
1742921189.8550267,-1.001254,0.055632,-0.174582,0.00122,-0.00976,0.000732,0.3496053785442853,0.08301666179479684,-0.056708564747149956
1742921189.9351292,-0.808982,0.037027,-0.222528,0.013663999999999999,0.0026839999999999998,-0.004392,0.3428821981876644,0.09646302250803858,-0.0689856767027185
1742921190.0152047,-0.8039189999999999,0.02501,-0.260104,-0.013908,-0.020252,-0.024156,0.3428821981876644,0.09646302250803858,-0.0689856767027185
1742921190.0953007,-1.007354,-0.018422,-0.255102,-0.044407999999999996,0.028791999999999998,-0.001464,0.3428821981876644,0.09646302250803858,-0.0689856767027185
1742921190.1753652,-1.070672,-0.002379,-0.254736,-0.063928,-0.003904,0.018056,0.34375913475591935,0.0952937737503654,-0.04896229172756504
1742921190.2554548,-1.194746,-0.008357,-0.208193,-0.059536,-0.075396,-0.00488,0.34375913475591935,0.0952937737503654,-0.04896229172756504
1742921190.3355289,-0.980026,-0.056608,-0.202093,-0.047335999999999996,-0.011224,-0.031476,0.33791289096755334,0.10610932475884244,-0.05685472084185911
1742921190.4189456,-0.9530029999999999,-0.06417199999999999,-0.218197,-0.039772,-0.008539999999999999,-0.039772,0.33791289096755334,0.10610932475884244,-0.05685472084185911
1742921190.4998071,-0.885964,-0.022935999999999998,-0.231129,-0.029523999999999998,-0.017324,-0.017079999999999998,0.33791289096755334,0.10610932475884244,-0.05685472084185911
1742921190.579944,-0.8401529999999999,-0.00244,-0.258152,-0.022692,0.01098,-0.0068319999999999995,0.3294358374744227,0.11254019292604502,-0.06343174510377082
1742921190.6658785,-0.936655,-0.017506999999999998,-0.31055099999999997,-0.02196,0.0026839999999999998,0.00122,0.3294358374744227,0.11254019292604502,-0.06343174510377082
1742921190.7401748,-1.0395619999999999,-0.023972999999999998,-0.313052,-0.020984,0.010003999999999999,0.016592,0.3273896521484946,0.10640163694826074,-0.05787781350482315
1742921190.8195403,-1.086349,-0.0048189999999999995,-0.272548,-0.011956,0.011956,0.035136,0.3273896521484946,0.10640163694826074,-0.05787781350482315
1742921190.8995914,-1.196759,-0.017751,-0.225456,-0.0053679999999999995,-0.029523999999999998,0.024888,0.3273896521484946,0.10640163694826074,-0.05787781350482315
1742921190.9804912,-0.959347,0.009333,-0.153232,0.004148,0.042943999999999996,-0.002928,0.3346974568839521,0.10201695410698626,-0.04501607717041801
1742921191.067961,-1.018517,-0.008784,-0.135847,-0.006344,0.00122,-0.0026839999999999998,0.3346974568839521,0.10201695410698626,-0.04501607717041801
1742921191.1399705,-0.8954799999999999,-0.031476,-0.160186,-0.018543999999999998,-0.0075639999999999995,-0.011224,0.3212510961707103,0.10201695410698626,-0.04457760888629056
1742921191.220183,-0.758718,-0.026900999999999998,-0.20923,-0.035868,0.02562,-0.026108,0.3212510961707103,0.10201695410698626,-0.04457760888629056
1742921191.3082907,-0.895724,0.011833999999999999,-0.295667,-0.066368,-0.020739999999999998,-0.021471999999999998,0.3212510961707103,0.10201695410698626,-0.04457760888629056
1742921191.3815508,-1.057069,0.044712999999999996,-0.311161,-0.090768,-0.021716,-0.0060999999999999995,0.3218357205495469,0.10903244665302543,-0.041069862613270974
1742921191.4607873,-1.132465,0.09089,-0.298412,-0.099796,0.057583999999999996,-0.0046359999999999995,0.3218357205495469,0.10903244665302543,-0.041069862613270974
1742921191.5404937,-1.047248,0.02135,-0.211975,-0.042943999999999996,0.008296,-0.013908,0.3218357205495469,0.10903244665302543,-0.041069862613270974
1742921191.6272829,-0.935557,-0.011956,-0.168543,-0.0075639999999999995,0.05856,-0.013908,0.3241742180648933,0.10552470038000585,-0.007892429114294067
1742921191.7014964,-0.972279,0.032085999999999996,-0.17671699999999999,0.030255999999999998,-0.025131999999999998,0.009028,0.3241742180648933,0.10552470038000585,-0.007892429114294067
1742921191.7808685,-0.815326,0.038735,-0.206485,0.073688,0.007808,0.010003999999999999,0.31745103770827243,0.10640163694826074,-0.017977199649225374
1742921191.8617058,-0.880108,0.021777,-0.255834,0.095648,-0.037332,0.011712,0.31745103770827243,0.10640163694826074,-0.017977199649225374
1742921191.9419503,-0.958005,0.0053679999999999995,-0.278282,0.098088,-0.030744,0.0068319999999999995,0.31745103770827243,0.10640163694826074,-0.017977199649225374
1742921192.0278149,-1.035475,0.021655,-0.288347,0.087352,0.0046359999999999995,0.012931999999999999,0.323881905875475,0.10903244665302543,-0.036392867582578196
1742921192.1013598,-1.105137,0.010858,-0.27572,0.085156,0.029036,0.040748,0.323881905875475,0.10903244665302543,-0.036392867582578196
1742921192.182261,-1.11691,0.002257,-0.229909,0.089304,0.023667999999999998,0.048556,0.320958783981292,0.09061677871967261,-0.06226249634609763
1742921192.2619064,-0.9855769999999999,0.026900999999999998,-0.200019,0.0915,0.020496,0.0366,0.320958783981292,0.09061677871967261,-0.06226249634609763
1742921192.342859,-0.940803,0.026535,-0.192333,0.092476,-0.01098,0.021228,0.320958783981292,0.09061677871967261,-0.06226249634609763
1742921192.4218466,-0.85705,-0.007625,-0.213622,0.081008,-0.011712,-0.00488,0.32212803273896523,0.09090909090909091,-0.06737795966091786
1742921192.5019848,-0.82777,-0.031293,-0.250039,0.06466,0.0026839999999999998,-0.024644,0.32212803273896523,0.09090909090909091,-0.06737795966091786
1742921192.5827434,-0.9301889999999999,-0.030927,-0.298961,0.042943999999999996,-0.0075639999999999995,-0.015616,0.3259280912014031,0.09704764688687519,-0.06313943291435253
1742921192.6622007,-1.051396,-0.022265,-0.304573,0.006344,0.011712,0.0075639999999999995,0.3259280912014031,0.09704764688687519,-0.06313943291435253
1742921192.742316,-1.126731,-0.01098,-0.307257,-0.028304,0.01098,0.011956,0.3259280912014031,0.09704764688687519,-0.06313943291435253
1742921192.8231487,-1.2261,-0.062647,-0.256139,-0.040504,-0.034404,0.000732,0.3262204033908214,0.092955276235019,-0.06489330605086233
1742921192.9025474,-0.9871019999999999,-0.066917,-0.191052,-0.049288,0.038308,0.0053679999999999995,0.3262204033908214,0.092955276235019,-0.06489330605086233
1742921192.9834826,-0.973316,-0.057218,-0.183122,-0.050263999999999996,-0.012199999999999999,-0.020252,0.3218357205495469,0.10084770534931306,-0.05524700380005846
1742921193.06278,-0.778726,-0.022082,-0.211914,-0.029768,0.021716,-0.013908,0.3218357205495469,0.10084770534931306,-0.05524700380005846
1742921193.143702,-0.7868999999999999,-0.015677,-0.267119,-0.011224,-0.012199999999999999,-0.012931999999999999,0.3218357205495469,0.10084770534931306,-0.05524700380005846
1742921193.2229729,-0.882792,-0.020496,-0.327021,0.000244,-0.024888,-0.02196,0.31920491084478225,0.11166325635779012,-0.04925460391698334
1742921193.3045459,-1.032913,-0.013663999999999999,-0.339648,0.013176,-0.016836,-0.01342,0.31920491084478225,0.11166325635779012,-0.04925460391698334
1742921193.3832247,-1.133502,-0.035807,-0.308477,0.0366,-0.01342,0.004392,0.31920491084478225,0.11166325635779012,-0.04925460391698334
1742921193.4633253,-1.195417,-0.043798,-0.2379,0.065636,-0.038796,0.015616,0.31102016954106987,0.10990938322128033,-0.06299327681964338
1742921193.5434341,-0.980819,-0.037637,-0.210511,0.06466,0.019032,0.018543999999999998,0.31102016954106987,0.10990938322128033,-0.06299327681964338
1742921193.6235523,-1.021201,-0.043127,-0.178425,0.0366,-0.0026839999999999998,0.061,0.3218357205495469,0.09821689564454837,-0.07293189125986553
1742921193.707755,-0.909632,-0.071431,-0.190442,0.01586,-0.01342,0.044896,0.3218357205495469,0.09821689564454837,-0.07293189125986553
1742921193.7837455,-0.778909,-0.060146,-0.217648,0.0017079999999999999,0.031232,0.01586,0.3218357205495469,0.09821689564454837,-0.07293189125986553
1742921193.8639019,-0.944829,-0.064233,-0.246745,-0.001952,-0.022203999999999998,-0.001464,0.3247588424437299,0.09470914937152879,-0.0811166325635779
1742921193.9447186,-1.031205,-0.063867,-0.26126299999999997,-0.011712,-0.0034159999999999998,-0.013908,0.3247588424437299,0.09470914937152879,-0.0811166325635779
1742921194.0246794,-1.06262,-0.07679899999999999,-0.268644,-0.0305,0.020007999999999998,-0.02318,0.3232972814966384,0.09733995907629348,-0.06123940368313359
1742921194.108676,-1.056642,-0.098027,-0.199592,-0.057583999999999996,0.018788,-0.008052,0.3232972814966384,0.09733995907629348,-0.06123940368313359
1742921194.1844382,-1.059753,-0.041479999999999996,-0.17269099999999998,-0.104432,0.0,0.017324,0.3232972814966384,0.09733995907629348,-0.06123940368313359
1742921194.2645862,-0.998692,-0.011101999999999999,-0.19672499999999998,-0.1281,0.028059999999999998,-0.020984,0.32066647179187374,0.10494007600116925,-0.03931598947676118
1742921194.3466752,-1.034499,0.004758,-0.217648,-0.109556,-0.034892,-0.037087999999999996,0.32066647179187374,0.10494007600116925,-0.03931598947676118
1742921194.4271302,-0.837896,-0.008601,-0.251747,-0.05978,0.021228,0.002928,0.31189710610932475,0.11458637825197311,-0.0343466822566501
1742921194.505285,-0.960079,0.008967,-0.327387,-0.012444,0.003172,0.008539999999999999,0.31189710610932475,0.11458637825197311,-0.0343466822566501
1742921194.5850592,-0.9940559999999999,-0.020557,-0.329949,0.010735999999999999,-0.0060999999999999995,0.00488,0.31189710610932475,0.11458637825197311,-0.0343466822566501
1742921194.6733494,-1.088789,-0.020984,-0.270169,0.033916,-0.04636,0.000976,0.3116047939199065,0.10581701256942415,-0.03814674071908799
1742921194.7458003,-1.105259,0.013603,-0.229055,0.0427,-0.039284,0.022692,0.3116047939199065,0.10581701256942415,-0.03814674071908799
1742921194.8255095,-0.916342,0.049409999999999996,-0.21167,0.034648,0.041968,0.020739999999999998,0.3116047939199065,0.10581701256942415,-0.03814674071908799
1742921194.9055552,-0.993202,0.052704,-0.203557,0.047335999999999996,-0.016104,0.018543999999999998,0.3162817889505992,0.09061677871967261,-0.03946214557147033
1742921194.9864783,-0.901397,0.017263,-0.218807,0.062708,-0.030987999999999998,0.013663999999999999,0.3162817889505992,0.09061677871967261,-0.03946214557147033
1742921195.0663834,-0.826672,-0.006771,-0.240706,0.052948,-0.013908,0.008784,0.31657410114001755,0.08681672025723473,-0.06167787196726104
1742921195.1460109,-0.9536129999999999,-0.013054,-0.281515,0.033672,-0.037576,0.002928,0.31657410114001755,0.08681672025723473,-0.06167787196726104
1742921195.226174,-1.057923,-0.020374,-0.277245,0.00732,0.0034159999999999998,-0.010248,0.31657410114001755,0.08681672025723473,-0.06167787196726104
1742921195.313506,-1.090497,0.001464,-0.271572,-0.028059999999999998,0.043188,-0.017079999999999998,0.3142356036246711,0.0926629640456007,-0.056708564747149956
1742921195.3875258,-1.107638,0.00366,-0.24820899999999999,-0.043676,0.013176,-0.005856,0.3142356036246711,0.0926629640456007,-0.056708564747149956
1742921195.4664752,-1.032913,-0.040931,-0.20496,-0.027816,-0.007808,-0.005124,0.3168664133294358,0.10464776381175095,-0.048085355159310145
1742921195.5465853,-0.961604,-0.078019,-0.171044,-0.012931999999999999,0.006588,-0.020252,0.3168664133294358,0.10464776381175095,-0.048085355159310145
1742921195.633248,-0.904691,-0.022997,-0.20569199999999999,-0.021716,-0.019764,0.016347999999999998,0.3168664133294358,0.10464776381175095,-0.048085355159310145
1742921195.7075493,-0.810812,-0.011407,-0.262483,-0.014884,-0.002196,0.012199999999999999,0.3142356036246711,0.09880152002338498,-0.058754750073078045
1742921195.786938,-0.9502579999999999,-0.006222,-0.269254,0.00366,-0.01952,0.01464,0.3142356036246711,0.09880152002338498,-0.058754750073078045
1742921195.866976,-0.980758,-0.002928,-0.30378,0.011712,0.021716,0.020007999999999998,0.3162817889505992,0.092955276235019,-0.04282373574978077
1742921195.9471395,-1.055971,-0.020679,-0.263337,-0.002928,0.009516,0.005612,0.3162817889505992,0.092955276235019,-0.04282373574978077
1742921196.0353386,-1.126304,0.029036,-0.176473,-0.000244,-0.020007999999999998,0.021228,0.3162817889505992,0.092955276235019,-0.04282373574978077
1742921196.1073484,-1.002047,0.030560999999999998,-0.13602999999999998,0.020496,0.008296,-0.00122,0.3250511546331482,0.09587839812920199,-0.049546916106401634
1742921196.187533,-0.977586,0.03172,-0.159515,0.039772,-0.04392,-0.020496,0.3250511546331482,0.09587839812920199,-0.049546916106401634
1742921196.2722435,-0.88145,0.008967,-0.206668,0.042943999999999996,-0.097844,-0.033916,0.31569716457176267,0.10084770534931306,-0.08067816427945046
1742921196.3490646,-0.834297,-0.004331,-0.19763999999999998,0.011224,-0.035136,0.00244,0.31569716457176267,0.10084770534931306,-0.08067816427945046
1742921196.4277937,-0.964715,-0.024888,-0.190686,-0.030744,-0.037087999999999996,0.028791999999999998,0.31569716457176267,0.10084770534931306,-0.08067816427945046
1742921196.507922,-1.060912,0.010858,-0.20679,-0.066856,-0.010735999999999999,0.020496,0.3232972814966384,0.0914937152879275,-0.08213972522654195
1742921196.592381,-1.081469,0.070821,-0.20923,-0.05856,0.013176,0.015127999999999999,0.3232972814966384,0.0914937152879275,-0.08213972522654195
1742921196.668134,-1.224331,0.043005,-0.20843699999999998,-0.018056,-0.04636,-0.014152,0.3232972814966384,0.0914937152879275,-0.08213972522654195
1742921196.7490127,-1.060607,-0.066063,-0.131943,0.005856,-0.007808,-0.038796,0.31394329143525285,0.10610932475884244,-0.07366267173341129
1742921196.8283544,-0.974048,-0.078385,-0.106628,0.0,0.047335999999999996,-0.038308,0.31394329143525285,0.10610932475884244,-0.07366267173341129
1742921196.9085727,-0.954284,-0.057888999999999996,-0.105225,-0.034404,-0.009028,-0.007076,0.31248173048816136,0.10494007600116925,-0.05086232095878398
1742921196.9935653,-0.7598159999999999,-0.015493999999999999,-0.158356,-0.055388,0.02928,0.00976,0.31248173048816136,0.10494007600116925,-0.05086232095878398
1742921197.0687244,-0.870775,-0.000305,-0.1891,-0.038064,-0.009028,0.02196,0.31248173048816136,0.10494007600116925,-0.05086232095878398
1742921197.1496122,-0.9669719999999999,0.022448,-0.225639,-0.018543999999999998,-0.00244,0.024156,0.310143232972815,0.0935399006138556,-0.052323881905875474
1742921197.2296433,-1.072441,-0.01342,-0.20105599999999998,0.0017079999999999999,0.011956,0.012199999999999999,0.310143232972815,0.0935399006138556,-0.052323881905875474
1742921197.311224,-1.1335629999999999,-0.0040869999999999995,-0.16652999999999998,-0.0068319999999999995,0.015372,-0.001952,0.304296989184449,0.09178602747734581,-0.04983922829581994
1742921197.3891633,-1.273924,0.02928,-0.159088,-0.009028,-0.039772,0.027327999999999998,0.304296989184449,0.09178602747734581,-0.04983922829581994
1742921197.469283,-1.14375,-0.03294,-0.13450499999999999,0.021228,0.017324,-0.038551999999999996,0.304296989184449,0.09178602747734581,-0.04983922829581994
1742921197.5501385,-0.840885,-0.023729,-0.16128399999999998,-0.005856,0.000976,-0.029523999999999998,0.2937737503653902,0.10464776381175095,-0.05203156971645718
1742921197.6295536,-0.890539,0.004758,-0.188368,-0.02318,0.01098,0.000732,0.2937737503653902,0.10464776381175095,-0.05203156971645718
1742921197.7096636,-0.983991,0.006527,-0.21655,-0.034648,0.019032,0.011956,0.310143232972815,0.10640163694826074,-0.043846828412744815
1742921197.789734,-1.063779,-0.009516,-0.205448,-0.038796,0.0305,0.008539999999999999,0.310143232972815,0.10640163694826074,-0.043846828412744815
1742921197.869899,-1.051762,-0.10022299999999999,-0.117669,-0.060024,0.043676,0.019275999999999998,0.310143232972815,0.10640163694826074,-0.043846828412744815
1742921197.9499712,-1.056398,-0.022387,-0.163785,-0.095404,-0.017568,0.021471999999999998,0.31482022800350773,0.08973984215141771,-0.022215726395790704
1742921198.0301151,-0.998082,0.013297999999999999,-0.195749,-0.07442,-0.000244,0.031232,0.31482022800350773,0.08973984215141771,-0.022215726395790704
1742921198.1167872,-0.969473,0.018727,-0.175985,-0.051727999999999996,-0.013908,0.000976,0.3045893013738673,0.08593978368897984,-0.014030985092078339
1742921198.1903198,-0.84729,0.0050019999999999995,-0.177388,-0.059047999999999996,0.013908,-0.021228,0.3045893013738673,0.08593978368897984,-0.014030985092078339
1742921198.2704594,-0.857721,0.016042999999999998,-0.21337799999999998,-0.07808,0.02196,-0.008052,0.3045893013738673,0.08593978368897984,-0.014030985092078339
1742921198.3519633,-0.9584929999999999,0.045994,-0.248453,-0.086864,0.004392,-0.015616,0.3060508623209588,0.09675533469745688,0.0030692779888921366
1742921198.4306896,-0.981734,0.085339,-0.260104,-0.087596,0.032695999999999996,0.004148,0.3060508623209588,0.09675533469745688,0.0030692779888921366
1742921198.5107548,-0.970205,0.002989,-0.19580999999999998,-0.07564,0.072712,-0.003904,0.3060508623209588,0.09675533469745688,0.0030692779888921366
1742921198.5910254,-1.262761,-0.063989,-0.188307,-0.08662,-0.048068,0.026108,0.3022508038585209,0.07424729611224788,0.014469453376205787
1742921198.672544,-1.080737,-0.050386,-0.162382,-0.134444,0.033916,0.037576,0.3022508038585209,0.07424729611224788,0.014469453376205787
1742921198.7512279,-0.995032,-0.079361,-0.216977,-0.19178399999999998,0.0068319999999999995,0.00244,0.2952353113124817,0.05524700380005846,0.05217772581116632
1742921198.8394601,-0.9922259999999999,-0.048434,-0.232959,-0.23155599999999998,-0.01098,-0.028548,0.2952353113124817,0.05524700380005846,0.05217772581116632
1742921198.9119833,-0.987651,-0.026962,-0.21185299999999999,-0.239608,0.005124,-0.093452,0.2952353113124817,0.05524700380005846,0.05217772581116632
1742921198.9916856,-0.990823,-0.011041,-0.235277,-0.274256,0.036356,-0.10638399999999999,0.2797427652733119,0.05203156971645718,0.10187079801227711
1742921199.0717478,-1.019249,-0.010187,-0.198555,-0.293776,0.014884,-0.103944,0.2797427652733119,0.05203156971645718,0.10187079801227711
1742921199.1526632,-1.092388,0.021411,-0.230458,-0.288408,-0.0034159999999999998,-0.08003199999999999,0.26220403390821395,0.03390821397252265,0.1414790996784566
1742921199.232042,-1.041453,-0.012993,-0.22082,-0.22691999999999998,0.010003999999999999,-0.087352,0.26220403390821395,0.03390821397252265,0.1414790996784566
1742921199.3134918,-1.002352,-0.029341,-0.198433,-0.17641199999999999,-0.004148,-0.05002,0.26220403390821395,0.03390821397252265,0.1414790996784566
1742921199.3958645,-0.8751059999999999,-0.001281,-0.187453,-0.138348,-0.00732,-0.036356,0.2560654779304297,0.023677287342882197,0.1648640748319205
1742921199.4723606,-0.940925,-0.015982,-0.179645,-0.099064,-0.04636,-0.043432,0.2560654779304297,0.023677287342882197,0.1648640748319205
1742921199.5524774,-0.977403,-0.026413,-0.211243,-0.073932,-0.032208,-0.048556,0.26571178018123354,0.014615609470914937,0.15916398713826366
1742921199.6325874,-0.914512,-0.020374,-0.239486,-0.0549,-0.00976,-0.024156,0.26571178018123354,0.014615609470914937,0.15916398713826366
1742921199.7127433,-0.9481229999999999,0.015433,-0.245769,-0.033184,-0.034404,-0.004148,0.26571178018123354,0.014615609470914937,0.15916398713826366
1742921199.7976391,-1.092937,-0.002013,-0.24296299999999998,-0.020739999999999998,-0.019764,-0.009271999999999999,0.26074247296112246,0.01929260450160772,0.15419467991815258
1742921199.8700793,-1.029009,-0.040931,-0.202398,-0.0305,0.070272,-0.01464,0.26074247296112246,0.01929260450160772,0.15419467991815258
1742921199.952045,-1.167113,-0.015738,-0.224419,-0.05978,-0.016592,0.00488,0.26074247296112246,0.01929260450160772,0.15419467991815258
1742921200.0299585,-1.0423069999999999,0.041784999999999996,-0.219295,-0.059047999999999996,0.013908,0.029768,0.2598655363928676,0.005846243788365975,0.1734872844197603
1742921200.111075,-0.963861,0.00671,-0.213927,-0.017079999999999998,-0.0017079999999999999,-0.00244,0.2598655363928676,0.005846243788365975,0.1734872844197603
1742921200.1901255,-0.862174,0.031354,-0.225639,0.005612,0.014395999999999999,-0.012444,0.24583455130078924,0.00964630225080386,0.1743642209880152
1742921200.2704334,-0.825696,0.032208,-0.242902,0.011467999999999999,0.028548,-0.022448,0.24583455130078924,0.00964630225080386,0.1743642209880152
1742921200.3507078,-0.905362,0.035807,-0.252845,0.007808,0.021471999999999998,-0.027084,0.24583455130078924,0.00964630225080386,0.1743642209880152
1742921200.4303563,-1.037244,0.009943,-0.265289,-0.022203999999999998,0.041968,-0.005856,0.2379421221864952,0.007600116924875768,0.18810289389067525
1742921200.510481,-1.225002,-0.037881,-0.216916,-0.04636,-0.030255999999999998,-0.008052,0.2379421221864952,0.007600116924875768,0.18810289389067525
1742921200.5905175,-0.966545,-0.035563,-0.174338,-0.037576,0.010735999999999999,-0.020496,0.24115755627009647,0.00029231218941829873,0.1796258403975446
1742921200.6706233,-0.894626,-0.022814,-0.19397999999999999,-0.027572,-0.003172,-0.0183,0.24115755627009647,0.00029231218941829873,0.1796258403975446
1742921200.75068,-0.925248,-0.016897,-0.208925,-0.010248,-0.036844,-0.013176,0.24115755627009647,0.00029231218941829873,0.1796258403975446
1742921200.830782,-0.867969,0.0008539999999999999,-0.235643,0.001952,0.007076,0.0017079999999999999,0.24057293189125986,0.003215434083601286,0.17933352820812629
1742921200.910864,-0.911279,0.013908,-0.256749,0.009028,0.02684,0.010492,0.24057293189125986,0.003215434083601286,0.17933352820812629
1742921200.9909594,-0.9554429999999999,0.0042699999999999995,-0.297192,0.00488,0.025131999999999998,0.002928,0.24320374159602456,0.005553931598947676,0.185910552470038
1742921201.0710235,-1.069879,-0.014152,-0.297985,0.007808,0.020252,0.003904,0.24320374159602456,0.005553931598947676,0.185910552470038
1742921201.1511219,-1.118191,-0.007991,-0.252906,0.005856,0.023424,0.023912,0.24320374159602456,0.005553931598947676,0.185910552470038
1742921201.2311795,-1.162843,-0.0075639999999999995,-0.211121,0.010492,-0.012931999999999999,0.036112,0.24378836597486114,-0.019877228880444315,0.19248757673194972
1742921201.3117762,-0.984418,0.038308,-0.156343,0.019275999999999998,0.02196,0.021228,0.24378836597486114,-0.019877228880444315,0.19248757673194972
1742921201.3913317,-0.920612,-0.011346,-0.17580199999999999,0.029523999999999998,-0.058316,-0.010003999999999999,0.24378836597486114,-0.019877228880444315,0.19248757673194972
1742921201.4714468,-0.872788,0.0037819999999999998,-0.208193,0.033428,-0.049532,-0.019275999999999998,0.24992692195264543,0.003215434083601286,0.1772873428821982
1742921201.551503,-0.861381,0.022082,-0.238205,0.031964,0.01342,-0.005124,0.24992692195264543,0.003215434083601286,0.1772873428821982
1742921201.631612,-0.981124,0.013663999999999999,-0.26657,0.014884,0.00488,0.000244,0.24671148786904415,0.005261619409529378,0.17772581116632563
1742921201.7116687,-1.039135,0.019032,-0.24095,-0.010735999999999999,0.030987999999999998,0.011712,0.24671148786904415,0.005261619409529378,0.17772581116632563
1742921201.79178,-1.10105,-0.022997,-0.208803,-0.017811999999999998,-0.000244,0.016836,0.24671148786904415,0.005261619409529378,0.17772581116632563
1742921201.8718336,-1.27368,-0.055083,-0.206546,-0.007076,-0.100772,-0.037087999999999996,0.25109617071031864,0.01373867290266004,0.15857936275942708
1742921201.951945,-0.933361,-0.065941,-0.182817,0.009516,0.026352,-0.010248,0.25109617071031864,0.01373867290266004,0.15857936275942708
1742921202.0320313,-0.795623,-0.027206,-0.190625,-0.018543999999999998,0.013663999999999999,0.018788,0.24729611224788073,0.013446360713241743,0.16442560654779304
1742921202.1121407,-0.8337479999999999,-0.020679,-0.215025,-0.012688,-0.022203999999999998,0.00732,0.24729611224788073,0.013446360713241743,0.16442560654779304
1742921202.1921725,-0.975451,-0.035623999999999996,-0.26870499999999997,0.00244,-0.032452,0.007076,0.24729611224788073,0.013446360713241743,0.16442560654779304
1742921202.2722862,-1.077992,-0.019459,-0.282491,0.014152,0.0,0.018056,0.265127155802397,0.018415667933352822,0.16150248465361006
1742921202.3527677,-1.166503,-0.023972999999999998,-0.24766,0.022692,0.022935999999999998,0.020007999999999998,0.265127155802397,0.018415667933352822,0.16150248465361006
1742921202.4324155,-1.142286,-0.006954,-0.227164,0.031476,-0.010492,0.024888,0.2616194095293774,0.009938614440222157,0.15624086524408068
1742921202.5125113,-0.925858,0.039955,-0.212829,0.046848,0.016592,0.029768,0.2616194095293774,0.009938614440222157,0.15624086524408068
1742921202.5925796,-0.98393,0.0068319999999999995,-0.17141,0.05978,-0.006588,0.015372,0.2616194095293774,0.009938614440222157,0.15624086524408068
1742921202.6726682,-0.837652,-0.021289,-0.174948,0.050263999999999996,0.020252,0.009271999999999999,0.2630809704764689,0.0228003507746273,0.16515638702133878
1742921202.7527337,-0.798856,-0.023851,-0.225517,0.033184,0.024156,-0.01464,0.2630809704764689,0.0228003507746273,0.16515638702133878
1742921202.8328314,-0.983869,-0.019275999999999998,-0.282674,0.022692,-0.02562,-0.030012,0.265127155802397,0.03390821397252265,0.16179479684302836
1742921202.9128919,-1.10471,-0.015311,-0.294386,-0.00122,0.030255999999999998,-0.015127999999999999,0.265127155802397,0.03390821397252265,0.16179479684302836
1742921202.9930193,-1.0763449999999999,-0.007259,-0.313723,-0.023667999999999998,0.06709999999999999,0.020007999999999998,0.265127155802397,0.03390821397252265,0.16179479684302836
1742921203.0730565,-1.150887,-0.033184,-0.284504,-0.010248,0.00488,0.032208,0.256357790119848,0.03127740426775796,0.16851797719964923
1742921203.1531715,-0.93269,-0.027755,-0.226798,0.024399999999999998,0.0053679999999999995,-0.00976,0.256357790119848,0.03127740426775796,0.16851797719964923
1742921203.2332232,-0.895846,-0.035136,-0.18440299999999998,0.041968,-0.006588,-0.0183,0.256357790119848,0.03127740426775796,0.16851797719964923
1742921203.3133264,-0.860161,-0.0015249999999999999,-0.20801,0.048799999999999996,-0.032695999999999996,0.014152,0.26278865828705056,0.034200526161940956,0.16179479684302836
1742921203.3933942,-0.771162,-0.004758,-0.263032,0.066124,0.013176,0.0366,0.26278865828705056,0.034200526161940956,0.16179479684302836
1742921203.473516,-1.084946,-0.045933,-0.285236,0.078324,-0.00488,0.026108,0.26688102893890675,0.0464776381175095,0.14469453376205788
1742921203.5535538,-1.128195,-0.032818,-0.271023,0.061,0.00488,0.037332,0.26688102893890675,0.0464776381175095,0.14469453376205788
1742921203.6336658,-1.186999,0.015738,-0.252052,0.033916,0.001464,0.0427,0.26688102893890675,0.0464776381175095,0.14469453376205788
1742921203.713739,-1.026569,0.079239,-0.230885,0.022935999999999998,0.011467999999999999,0.026352,0.26834258988599824,0.035662087109032445,0.14440222157263957
1742921203.7938333,-0.99796,0.090097,-0.202398,0.04514,-0.01342,0.016347999999999998,0.26834258988599824,0.035662087109032445,0.14440222157263957
1742921203.8739104,-0.860649,0.051362,-0.208193,0.076128,-0.012931999999999999,0.002928,0.2712657117801812,0.06080093539900614,0.14308681672025725
1742921203.9539914,-0.770918,0.041053,-0.233752,0.083448,0.022448,0.003172,0.2712657117801812,0.06080093539900614,0.14308681672025725
1742921204.0340457,-0.874374,0.043737,-0.300181,0.081008,-0.00122,0.002928,0.2712657117801812,0.06080093539900614,0.14308681672025725
1742921204.1141572,-0.98637,0.019825,-0.307135,0.066124,0.010003999999999999,0.000244,0.2765273311897106,0.07249342297573809,0.13212510961707102
1742921204.1942134,-1.115263,-0.008173999999999999,-0.296216,0.0366,-0.001952,-0.006344,0.2765273311897106,0.07249342297573809,0.13212510961707102
1742921204.2743344,-1.15595,-0.021655,-0.243451,0.034404,0.003172,-0.0026839999999999998,0.2785735165156387,0.08360128617363344,0.1296404560070155
1742921204.3549235,-1.071526,-0.005856,-0.214171,0.05002,-0.023424,0.011467999999999999,0.2785735165156387,0.08360128617363344,0.1296404560070155
1742921204.4374433,-0.98576,-0.049593,-0.163846,0.06466,0.02684,0.020007999999999998,0.2785735165156387,0.08360128617363344,0.1296404560070155
1742921204.5145772,-0.9776469999999999,-0.016409,-0.223626,0.049776,-0.033428,0.020007999999999998,0.2806197018415668,0.09470914937152879,0.10859397836889799
1742921204.59762,-0.824049,0.016104,-0.278282,0.046848,0.009028,0.033916,0.2806197018415668,0.09470914937152879,0.10859397836889799
1742921204.6747165,-0.899933,0.0018909999999999999,-0.302499,0.048312,-0.006344,0.027327999999999998,0.2806197018415668,0.09470914937152879,0.14600993861444023
1742921204.757761,-0.8848659999999999,-0.025742,-0.293166,0.037576,0.029036,0.020984,0.2855890090616779,0.08652440806781643,0.12014030985092078
1742921204.8357704,-1.057862,-0.01891,-0.278831,0.023424,-0.005612,0.018788,0.2855890090616779,0.08652440806781643,0.12014030985092078
1742921204.9248955,-1.128439,0.008052,-0.25638299999999997,0.034159999999999996,-0.019032,0.020496,0.28675825781935105,0.08798596901490792,0.10669394913767904
1742921204.9991739,-0.944402,0.058255,-0.174155,0.076616,0.028059999999999998,0.01586,0.28675825781935105,0.08798596901490792,0.10669394913767904
1742921205.0793505,-0.976671,0.019825,-0.17263,0.071736,-0.023912,0.021471999999999998,0.28675825781935105,0.08798596901490792,0.10669394913767904
1742921205.1586623,-0.806908,0.00793,-0.218441,0.056364,0.000244,0.017568,0.3060508623209588,0.0926629640456007,0.10055539315989477
1742921205.2388213,-0.797026,0.024399999999999998,-0.286883,0.052216,-0.028548,0.024399999999999998,0.3060508623209588,0.0926629640456007,0.10055539315989477
1742921205.3254857,-1.069025,0.025436999999999998,-0.30811099999999997,0.05002,-0.08662,0.013176,0.31657410114001755,0.08798596901490792,0.07088570593393745
1742921205.4003193,-1.069635,0.008662,-0.250405,0.036112,0.048799999999999996,0.00122,0.31657410114001755,0.08798596901490792,0.07088570593393745
1742921205.4848418,-1.091168,-0.01098,-0.21307299999999998,0.024888,0.066612,0.013663999999999999,0.31657410114001755,0.08798596901490792,0.07088570593393745
1742921205.5594022,-1.199931,-0.005856,-0.186904,0.017568,-0.013663999999999999,0.0026839999999999998,0.31598947676118094,0.09909383221280327,0.08710903244665302
1742921205.6402142,-0.956846,-0.017019,-0.14091,0.020984,0.046848,-0.004148,0.31598947676118094,0.09909383221280327,0.08710903244665302
1742921205.7195277,-0.950319,-0.010126,-0.147986,0.027572,-0.030012,-0.022935999999999998,0.3230049693072201,0.10727857351651564,0.07980122771119556
1742921205.800417,-0.855525,-0.001098,-0.168604,0.031232,-0.019032,-0.0017079999999999999,0.3230049693072201,0.10727857351651564,0.07980122771119556
1742921205.8850346,-0.80703,-0.015189,-0.204777,0.01952,0.003172,0.000244,0.3230049693072201,0.10727857351651564,0.07980122771119556
1742921205.9598641,-0.9684969999999999,-0.028304,-0.25681,0.00976,-0.027327999999999998,0.009271999999999999,0.3306050862320959,0.10844782227418884,0.06547793042969892
1742921206.0400019,-1.013088,-0.020191,-0.292251,0.00732,0.012199999999999999,0.024156,0.3306050862320959,0.10844782227418884,0.06547793042969892
1742921206.1208215,-1.127707,-0.015677,-0.296643,0.011224,-0.000976,0.020496,0.3291435252850044,0.09997076878105816,0.0695703010815551
1742921206.2007616,-1.101721,0.025559,-0.248148,0.021471999999999998,0.0017079999999999999,0.003904,0.3291435252850044,0.09997076878105816,0.0695703010815551
1742921206.283936,-1.0946449999999999,0.028426,-0.231617,0.034648,-0.012931999999999999,0.011467999999999999,0.3291435252850044,0.09997076878105816,0.0695703010815551
1742921206.361656,-0.892918,0.043005,-0.190076,0.043676,0.049288,0.017568,0.33645133002046185,0.10114001753873136,0.07380882782812043
1742921206.4406023,-0.9423279999999999,0.007625,-0.191235,0.032695999999999996,-0.010735999999999999,0.010735999999999999,0.33645133002046185,0.10114001753873136,0.07380882782812043
1742921206.5207732,-0.887184,0.0075639999999999995,-0.249856,0.042943999999999996,-0.009271999999999999,0.0068319999999999995,0.33645133002046185,0.10114001753873136,0.07380882782812043
1742921206.605991,-0.98637,0.003477,-0.303292,0.038796,-0.003172,-0.0053679999999999995,0.3458053200818474,0.09792458345513008,0.05977784273604209
1742921206.680951,-1.083787,0.009394,-0.290543,0.020739999999999998,0.041236,0.012444,0.3458053200818474,0.09792458345513008,0.05977784273604209
1742921206.7618442,-1.171444,0.001037,-0.243634,0.010248,0.016104,0.017811999999999998,0.3443437591347559,0.09997076878105816,0.06577024261911722
1742921206.8419437,-1.1825459999999999,-0.036722,-0.229055,0.009516,-0.029523999999999998,-0.00488,0.3443437591347559,0.09997076878105816,0.06577024261911722
1742921206.9220932,-0.886208,-0.071675,-0.177693,0.007808,0.072956,-0.022448,0.3443437591347559,0.09997076878105816,0.06577024261911722
1742921207.0081928,-0.9216489999999999,-0.016042999999999998,-0.198799,-0.00488,0.000732,-0.0046359999999999995,0.3346974568839521,0.10844782227418884,0.08184741303712365
1742921207.0823557,-0.815448,-0.01769,-0.219722,-0.00366,-0.006588,0.000732,0.3346974568839521,0.10844782227418884,0.08184741303712365
1742921207.1616855,-0.785802,-0.011651,-0.259616,-0.00122,-0.023424,0.005856,0.34317451037708274,0.10640163694826074,0.08579362759427069
1742921207.242503,-0.906521,-0.011285,-0.303048,0.006588,-0.025863999999999998,0.020739999999999998,0.34317451037708274,0.10640163694826074,0.08579362759427069
1742921207.324137,-0.991555,-0.003172,-0.305427,0.01098,0.0075639999999999995,0.024156,0.34317451037708274,0.10640163694826074,0.08579362759427069
1742921207.401977,-1.126609,-0.043432,-0.284321,0.016592,-0.010492,0.034648,0.3490207541654487,0.10377082724349605,0.07453960830166619
1742921207.4821393,-1.211033,-0.048129,-0.19367499999999999,0.009028,-0.032695999999999996,0.038308,0.3490207541654487,0.10377082724349605,0.07453960830166619
1742921207.5653665,-1.039501,0.065819,-0.17702199999999998,0.00122,-0.015616,0.026108,0.35779011984799763,0.10669394913767904,0.06065477930429699
1742921207.6423583,-1.050908,0.054046,-0.179035,0.028791999999999998,-0.039772,0.005124,0.35779011984799763,0.10669394913767904,0.06065477930429699
1742921207.7224607,-0.900543,0.028791999999999998,-0.195749,0.049288,-0.033916,-0.022203999999999998,0.35779011984799763,0.10669394913767904,0.06065477930429699
1742921207.803303,-0.842349,0.029036,-0.227713,0.052948,-0.000244,-0.021228,0.3516515638702134,0.12101724641917568,0.046916106401636945
1742921207.8834598,-0.990945,0.059231,-0.240645,0.061,0.004392,-0.012688,0.3516515638702134,0.12101724641917568,0.046916106401636945
1742921207.9657328,-1.0337669999999999,0.018422,-0.225273,0.092232,0.06344,0.023667999999999998,0.34463607132417423,0.1391406021631102,0.06270096463022508
1742921208.0429115,-1.050908,0.01098,-0.174521,0.101992,0.015372,0.017079999999999998,0.34463607132417423,0.1391406021631102,0.06270096463022508
1742921208.1238055,-0.925187,0.0068319999999999995,-0.145363,0.106628,0.04026,0.018056,0.34463607132417423,0.1391406021631102,0.06270096463022508
1742921208.203913,-1.032791,-0.0064659999999999995,-0.167933,0.123708,-0.056364,0.022692,0.3545746857643964,0.15024846536100556,0.026308097047646885
1742921208.2838411,-0.978684,-0.008296,-0.19458999999999999,0.1525,-0.043432,0.019764,0.3545746857643964,0.15024846536100556,0.026308097047646885
1742921208.365021,-0.933666,-0.031537,-0.20679,0.14762,-0.000244,0.030744,0.3545746857643964,0.15024846536100556,0.026308097047646885
1742921208.4439979,-0.964654,-0.058682,-0.216794,0.120536,0.011467999999999999,0.043432,0.36042092955276234,0.15317158725518853,-0.015054077755042385
1742921208.523877,-1.054141,-0.080947,-0.24326799999999998,0.103944,0.00244,0.017811999999999998,0.36042092955276234,0.15317158725518853,-0.015054077755042385
1742921208.6044276,-1.066097,-0.057218,-0.233935,0.102236,0.012199999999999999,0.020252,0.355159310143233,0.1397252265419468,-0.04443145279158141
1742921208.6922178,-1.168272,-0.025498,-0.19025899999999998,0.097356,-0.03782,0.025376,0.355159310143233,0.1397252265419468,-0.04443145279158141
1742921208.7643325,-0.8805959999999999,0.0042699999999999995,-0.175558,0.073444,0.05368,0.0046359999999999995,0.355159310143233,0.1397252265419468,-0.04443145279158141
1742921208.8444564,-0.966301,-0.019581,-0.167384,0.066856,-0.012444,0.004148,0.3525285004384683,0.15200233849751535,-0.051300789242911427
1742921208.9252703,-0.887794,-0.061061,-0.156465,0.039772,0.009271999999999999,-0.010248,0.3525285004384683,0.15200233849751535,-0.051300789242911427
1742921209.0054994,-0.916952,-0.073322,-0.18562299999999998,-0.011712,0.009271999999999999,0.023424,0.3592516807950892,0.14469453376205788,-0.042677579655071615
1742921209.0928118,-0.96868,-0.058987,-0.244305,-0.051727999999999996,-0.000244,0.022935999999999998,0.3592516807950892,0.14469453376205788,-0.042677579655071615
1742921209.1648917,-1.04554,-0.079178,-0.263459,-0.064904,-0.012444,-0.013176,0.3592516807950892,0.14469453376205788,-0.042677579655071615
1742921209.245788,-1.103734,-0.05978,-0.273646,-0.086132,-0.031232,-0.042212,0.34054370067231804,0.15083308973984216,-0.030985092078339667
1742921209.3307478,-1.014308,-0.027755,-0.256505,-0.02318,-0.0183,0.0,0.34054370067231804,0.15083308973984216,-0.030985092078339667
1742921209.4071395,-1.067256,-0.015799,-0.184281,-0.00244,0.020739999999999998,-0.00244,0.3259280912014031,0.14995615317158725,-0.021631102016954108
1742921209.4910607,-0.904752,-0.054107,-0.135908,-0.04636,0.03538,0.020007999999999998,0.3259280912014031,0.14995615317158725,-0.021631102016954108
1742921209.5662148,-0.9362889999999999,-0.024339,-0.174826,-0.087352,-0.020739999999999998,0.037087999999999996,0.3259280912014031,0.14995615317158725,-0.021631102016954108
1742921209.64561,-0.896273,0.00122,-0.232837,-0.07686,-0.007808,0.023424,0.3311897106109325,0.13446360713241742,-0.02075416544869921
1742921209.7260857,-0.919758,0.015982,-0.298473,-0.041236,0.00366,0.004148,0.3311897106109325,0.13446360713241742,-0.02075416544869921
1742921209.8066592,-0.977403,0.02928,-0.327326,-0.009516,0.031232,0.009028,0.3215434083601286,0.12189418298743057,-0.0007307804735457469
1742921209.8916693,-1.059692,0.035563,-0.28182,0.010735999999999999,0.003172,0.014152,0.3215434083601286,0.12189418298743057,-0.0007307804735457469
1742921209.9661222,-1.212375,-0.019581,-0.20075099999999999,0.034404,-0.090768,0.028548,0.3215434083601286,0.12189418298743057,-0.0007307804735457469
1742921210.046289,-0.9548329999999999,-0.011407,-0.163724,0.025376,-0.012199999999999999,0.02928,0.31102016954106987,0.11078631978953522,-0.031131248173048815
1742921210.1263494,-1.034499,0.026962,-0.135481,-0.00122,-0.00488,0.024156,0.31102016954106987,0.11078631978953522,-0.031131248173048815
1742921210.207301,-0.972889,0.036173,-0.160796,0.00244,-0.022203999999999998,-0.009516,0.31102016954106987,0.11078631978953522,-0.031131248173048815
1742921210.2921557,-0.846375,0.037149,-0.201788,0.037087999999999996,-0.019032,-0.025376,0.31306635486699796,0.11867874890382929,-0.050277696579947385
1742921210.367668,-0.9569679999999999,-0.002806,-0.12895399999999999,0.055876,-0.048068,-0.020252,0.31306635486699796,0.11867874890382929,-0.050277696579947385
1742921210.446829,-1.038891,-0.002623,-0.133895,0.028791999999999998,-0.018543999999999998,-0.025131999999999998,0.3010815551008477,0.12627886582870507,-0.056708564747149956
1742921210.5269601,-1.107821,0.043005,-0.155916,0.011712,-0.011712,-0.006344,0.3010815551008477,0.12627886582870507,-0.056708564747149956
1742921210.6151953,-1.222196,0.109129,-0.123464,0.03782,-0.02562,-0.02318,0.3010815551008477,0.12627886582870507,-0.056708564747149956
1742921210.6871743,-1.111786,0.07124799999999999,-0.12425699999999999,0.09589199999999999,-0.018788,0.023912,0.3040046769950307,0.12130955860859398,-0.080239695995323
1742921210.7673502,-0.950807,-0.010309,-0.096624,0.110288,0.06344,0.034648,0.3040046769950307,0.12130955860859398,-0.080239695995323
1742921210.8473945,-0.867176,-0.056119999999999996,-0.100772,0.090036,0.029768,-0.012931999999999999,0.28880444314527914,0.12510961707103185,-0.1036246711487869
1742921210.92829,-0.978989,-0.015006,-0.161894,0.04392,-0.02562,0.01098,0.28880444314527914,0.12510961707103185,-0.1036246711487869
1742921211.0142117,-1.017846,-0.020252,-0.19641999999999998,0.042943999999999996,-0.029523999999999998,0.041724,0.28880444314527914,0.12510961707103185,-0.1036246711487869
1742921211.0877619,-0.997594,-0.045506,-0.176168,0.052704,0.008052,0.03172,0.30634317451037707,0.10610932475884244,-0.09894767611809413
1742921211.1679034,-1.070001,-0.052643,-0.167689,0.053924,0.011467999999999999,-0.00976,0.30634317451037707,0.10610932475884244,-0.09894767611809413
1742921211.2487063,-1.052738,0.013847,-0.16530999999999998,0.05368,0.024399999999999998,0.01342,0.3045893013738673,0.10640163694826074,-0.10990938322128033
1742921211.3303816,-0.995032,0.054046,-0.169519,0.055144,0.032452,0.036356,0.3045893013738673,0.10640163694826074,-0.10990938322128033
1742921211.4093354,-0.947086,0.024399999999999998,-0.125477,0.06709999999999999,0.01098,0.051972,0.3045893013738673,0.10640163694826074,-0.10990938322128033
1742921211.4883986,-0.9104249999999999,0.00671,-0.101931,0.055388,-0.017568,0.020984,0.31277404267757963,0.08447822274188833,-0.11750950014615609
1742921211.5686128,-0.947635,0.023119,-0.180377,0.020252,-0.005124,-0.025131999999999998,0.31277404267757963,0.08447822274188833,-0.11750950014615609
1742921211.6486027,-1.103673,0.031171,-0.249856,-0.013908,-0.042456,-0.027084,0.31277404267757963,0.08447822274188833,-0.11750950014615609
1742921211.7294967,-1.061644,0.0028669999999999998,-0.22356499999999999,-0.048799999999999996,0.010492,0.001464,0.310143232972815,0.08564747149956153,-0.11560947091493716
1742921211.8101795,-1.055178,0.014579,-0.182085,-0.05002,0.02562,0.027327999999999998,0.310143232972815,0.08564747149956153,-0.11560947091493716
1742921211.88906,-1.114592,0.030073,-0.161528,-0.030255999999999998,-0.011712,0.0,0.30838935983630517,0.09558608593978368,-0.10289389067524116
1742921211.9692683,-0.944036,-0.068686,-0.132614,0.0060999999999999995,0.027816,-0.010735999999999999,0.30838935983630517,0.09558608593978368,-0.10289389067524116
1742921212.0500252,-0.9578829999999999,-0.065514,-0.12163399999999999,0.023424,-0.034404,-0.010492,0.30838935983630517,0.09558608593978368,-0.10289389067524116
1742921212.1294389,-0.870775,-0.003904,-0.124806,0.035868,-0.021471999999999998,0.021716,0.3273896521484946,0.0920783396667641,-0.10815551008477053
1742921212.2111156,-0.968863,0.069967,-0.132797,0.048312,-0.00122,0.054412,0.3273896521484946,0.0920783396667641,-0.10815551008477053
1742921212.2911568,-1.050115,0.052521,-0.173667,0.09881999999999999,-0.014152,0.048799999999999996,0.326805027769658,0.07570885705933937,-0.12861736334405144
1742921212.369714,-1.0431,-0.004697,-0.208803,0.150548,0.013908,-0.010492,0.326805027769658,0.07570885705933937,-0.12861736334405144
1742921212.4498656,-1.02297,0.004331,-0.139507,0.105408,0.047335999999999996,0.024399999999999998,0.326805027769658,0.07570885705933937,-0.12861736334405144
1742921212.5349767,-0.989603,0.038125,-0.091317,0.06222,0.037332,0.041724,0.3314820228003508,0.05583162817889506,-0.12423268050277697
1742921212.6100688,-0.990274,-0.028364999999999998,-0.08052,0.033184,0.004392,0.023424,0.3314820228003508,0.05583162817889506,-0.12423268050277697
1742921212.6902084,-0.931653,-0.127063,-0.08881599999999999,-0.026352,-0.004148,0.019764,0.33732826658871673,0.05086232095878398,-0.12452499269219526
1742921212.7702835,-1.019615,-0.056181,-0.105286,-0.088328,-0.076616,-0.002196,0.33732826658871673,0.05086232095878398,-0.12452499269219526
1742921212.850849,-1.013881,0.033001,-0.167628,-0.121512,-0.049288,-0.036356,0.33732826658871673,0.05086232095878398,-0.12452499269219526
1742921212.9347425,-0.894321,-0.074054,-0.19886,-0.121268,0.011712,-0.063928,0.3218357205495469,0.08155510084770536,-0.1275942706810874
1742921213.01074,-1.012295,-0.010431,-0.18056,-0.11931599999999999,-0.014884,-0.026352,0.3218357205495469,0.08155510084770536,-0.1275942706810874
1742921213.090872,-1.11203,0.022143,-0.118035,-0.130052,-0.015127999999999999,0.007808,0.31365097924583457,0.10377082724349605,-0.11458637825197311
1742921213.1717217,-1.143262,0.049593,-0.12627,-0.136152,-0.0427,-0.03782,0.31365097924583457,0.10377082724349605,-0.11458637825197311
1742921213.2518544,-0.995032,0.035685,-0.090707,-0.098332,0.032208,-0.040992,0.31365097924583457,0.10377082724349605,-0.11458637825197311
1742921213.3395045,-0.974475,0.052155,-0.114009,-0.062952,0.008539999999999999,-0.022448,0.31043554516223326,0.11224788073662671,-0.09748611517100263
1742921213.4124508,-0.920978,0.060816999999999996,-0.14652199999999999,-0.027816,0.016592,-0.005124,0.31043554516223326,0.11224788073662671,-0.09748611517100263
1742921213.4914384,-0.887489,0.029768,-0.181414,0.0017079999999999999,0.028548,0.009028,0.31043554516223326,0.11224788073662671,-0.09748611517100263
1742921213.5715604,-0.993568,-0.008784,-0.205753,0.019032,-0.00122,0.017568,0.31102016954106987,0.1157556270096463,-0.0941245249926922
1742921213.6584032,-1.044564,-0.015127999999999999,-0.208681,0.02318,0.006344,0.025376,0.31102016954106987,0.1157556270096463,-0.0941245249926922
1742921213.731788,-1.100013,-0.001769,-0.204533,0.023667999999999998,0.000488,0.019275999999999998,0.30634317451037707,0.1157556270096463,-0.10698626132709733
1742921213.8126905,-1.201639,0.011163,-0.164639,0.024888,-0.019275999999999998,-0.014152,0.30634317451037707,0.1157556270096463,-0.10698626132709733
1742921213.8914304,-1.015528,-0.007137,-0.124928,0.014152,0.0053679999999999995,0.024644,0.30634317451037707,0.1157556270096463,-0.10698626132709733
1742921213.9715722,-0.818681,-0.009637999999999999,-0.157136,0.005856,0.039528,0.0017079999999999999,0.31862028646594565,0.10698626132709733,-0.10084770534931306
